"Subject","Gender","Age","BirthYear","LabovHierarchy","Trial","Trial_c","F1","F2","F1_c","F2_c","RT","RT_c","LogRT","LogRT_c","Response","ChosenVowel","F1_ae","F2_ae","F1_e","F2_e","F1_o","F2_o","F1_u","F2_u","ED_e","ED_ae","ED_both"
"F1937","F","old",1937,3,7,-47.5,900,1650,75,75,426,-103.949776785714,6.05443934626937,-0.042343504393612,"BAT","ae",634.026454545454,1437.80481818182,503.644454545455,1671.46990909091,520.097454545455,1117.85045454545,562.473,1290.64709090909,203.269486093495,109.062563834428,156.166024963961
"F1937","F","old",1937,3,8,-46.5,750,1850,-75,275,429,-100.949776785714,6.06145691892802,-0.0353259317349659,"BET","e",634.026454545454,1437.80481818182,503.644454545455,1671.46990909091,520.097454545455,1117.85045454545,562.473,1290.64709090909,203.269486093495,109.062563834428,156.166024963961
"F1937","F","old",1937,3,9,-45.5,800,1400,-25,-175,826,296.050223214286,6.71659477352098,0.619811922857995,"BUT","u",634.026454545454,1437.80481818182,503.644454545455,1671.46990909091,520.097454545455,1117.85045454545,562.473,1290.64709090909,203.269486093495,109.062563834428,156.166024963961
"F1937","F","old",1937,3,10,-44.5,850,1850,25,275,571,41.0502232142857,6.34738920965601,0.250606358993028,"BAT","ae",634.026454545454,1437.80481818182,503.644454545455,1671.46990909091,520.097454545455,1117.85045454545,562.473,1290.64709090909,203.269486093495,109.062563834428,156.166024963961
"F1937","F","old",1937,3,11,-43.5,800,1600,-25,25,997,467.050223214286,6.90475076996184,0.807967919298855,"BET","e",634.026454545454,1437.80481818182,503.644454545455,1671.46990909091,520.097454545455,1117.85045454545,562.473,1290.64709090909,203.269486093495,109.062563834428,156.166024963961
"F1937","F","old",1937,3,12,-42.5,800,1200,-25,-375,630,100.050223214286,6.44571981938558,0.348936968722596,"BOUGHT","o",634.026454545454,1437.80481818182,503.644454545455,1671.46990909091,520.097454545455,1117.85045454545,562.473,1290.64709090909,203.269486093495,109.062563834428,156.166024963961
"F1937","F","old",1937,3,13,-41.5,750,1350,-75,-225,601,71.0502232142857,6.39859493453521,0.301812083872225,"BUT","u",634.026454545454,1437.80481818182,503.644454545455,1671.46990909091,520.097454545455,1117.85045454545,562.473,1290.64709090909,203.269486093495,109.062563834428,156.166024963961
"F1937","F","old",1937,3,14,-40.5,950,1600,125,25,467,-62.9497767857143,6.1463292576689,0.0495464070059146,"BAT","ae",634.026454545454,1437.80481818182,503.644454545455,1671.46990909091,520.097454545455,1117.85045454545,562.473,1290.64709090909,203.269486093495,109.062563834428,156.166024963961
"F1937","F","old",1937,3,15,-39.5,900,1250,75,-325,596,66.0502232142857,6.39024066706535,0.293457816402367,"BOUGHT","o",634.026454545454,1437.80481818182,503.644454545455,1671.46990909091,520.097454545455,1117.85045454545,562.473,1290.64709090909,203.269486093495,109.062563834428,156.166024963961
"F1937","F","old",1937,3,16,-38.5,950,1800,125,225,489,-40.9497767857143,6.19236248947487,0.0955796388118895,"BAT","ae",634.026454545454,1437.80481818182,503.644454545455,1671.46990909091,520.097454545455,1117.85045454545,562.473,1290.64709090909,203.269486093495,109.062563834428,156.166024963961
"F1937","F","old",1937,3,17,-37.5,800,1350,-25,-225,476,-53.9497767857143,6.16541785423142,0.0686350035684375,"BOUGHT","o",634.026454545454,1437.80481818182,503.644454545455,1671.46990909091,520.097454545455,1117.85045454545,562.473,1290.64709090909,203.269486093495,109.062563834428,156.166024963961
"F1937","F","old",1937,3,18,-36.5,900,1900,75,325,711,181.050223214286,6.56667242980324,0.469889579140258,"BAT","ae",634.026454545454,1437.80481818182,503.644454545455,1671.46990909091,520.097454545455,1117.85045454545,562.473,1290.64709090909,203.269486093495,109.062563834428,156.166024963961
"F1937","F","old",1937,3,19,-35.5,700,1700,-125,125,1332,802.050223214286,7.19443685110033,1.09765400043735,"BET","e",634.026454545454,1437.80481818182,503.644454545455,1671.46990909091,520.097454545455,1117.85045454545,562.473,1290.64709090909,203.269486093495,109.062563834428,156.166024963961
"F1937","F","old",1937,3,20,-34.5,950,1650,125,75,369,-160.949776785714,5.91079664404053,-0.185986206622456,"BAT","ae",634.026454545454,1437.80481818182,503.644454545455,1671.46990909091,520.097454545455,1117.85045454545,562.473,1290.64709090909,203.269486093495,109.062563834428,156.166024963961
"F1937","F","old",1937,3,21,-33.5,700,1950,-125,375,434,-95.9497767857143,6.07304453410041,-0.0237383165625777,"BET","e",634.026454545454,1437.80481818182,503.644454545455,1671.46990909091,520.097454545455,1117.85045454545,562.473,1290.64709090909,203.269486093495,109.062563834428,156.166024963961
"F1937","F","old",1937,3,22,-32.5,800,1900,-25,325,451,-78.9497767857143,6.11146733950268,0.0146844888396958,"BET","e",634.026454545454,1437.80481818182,503.644454545455,1671.46990909091,520.097454545455,1117.85045454545,562.473,1290.64709090909,203.269486093495,109.062563834428,156.166024963961
"F1937","F","old",1937,3,23,-31.5,900,1550,75,-25,377,-152.949776785714,5.93224518744801,-0.164537663214972,"BAT","ae",634.026454545454,1437.80481818182,503.644454545455,1671.46990909091,520.097454545455,1117.85045454545,562.473,1290.64709090909,203.269486093495,109.062563834428,156.166024963961
"F1937","F","old",1937,3,24,-30.5,900,1950,75,375,1666,1136.05022321429,7.41818082272679,1.3213979720638,"BAT","ae",634.026454545454,1437.80481818182,503.644454545455,1671.46990909091,520.097454545455,1117.85045454545,562.473,1290.64709090909,203.269486093495,109.062563834428,156.166024963961
"F1937","F","old",1937,3,25,-29.5,900,1300,75,-275,440,-89.9497767857143,6.08677472691231,-0.0100081237506764,"BOUGHT","o",634.026454545454,1437.80481818182,503.644454545455,1671.46990909091,520.097454545455,1117.85045454545,562.473,1290.64709090909,203.269486093495,109.062563834428,156.166024963961
"F1937","F","old",1937,3,26,-28.5,700,1800,-125,225,1071,541.050223214286,6.97634807044775,0.879565219784766,"BET","e",634.026454545454,1437.80481818182,503.644454545455,1671.46990909091,520.097454545455,1117.85045454545,562.473,1290.64709090909,203.269486093495,109.062563834428,156.166024963961
"F1937","F","old",1937,3,27,-27.5,700,1300,-125,-275,579,49.0502232142857,6.361302477573,0.264519626910013,"BUT","u",634.026454545454,1437.80481818182,503.644454545455,1671.46990909091,520.097454545455,1117.85045454545,562.473,1290.64709090909,203.269486093495,109.062563834428,156.166024963961
"F1937","F","old",1937,3,28,-26.5,850,1600,25,25,336,-193.949776785714,5.8171111599632,-0.279671690699779,"BAT","ae",634.026454545454,1437.80481818182,503.644454545455,1671.46990909091,520.097454545455,1117.85045454545,562.473,1290.64709090909,203.269486093495,109.062563834428,156.166024963961
"F1937","F","old",1937,3,29,-25.5,700,1850,-125,275,393,-136.949776785714,5.97380961186926,-0.122973238793722,"BET","e",634.026454545454,1437.80481818182,503.644454545455,1671.46990909091,520.097454545455,1117.85045454545,562.473,1290.64709090909,203.269486093495,109.062563834428,156.166024963961
"F1937","F","old",1937,3,30,-24.5,950,1450,125,-125,851,321.050223214286,6.74641212857337,0.649629277910392,"BOUGHT","o",634.026454545454,1437.80481818182,503.644454545455,1671.46990909091,520.097454545455,1117.85045454545,562.473,1290.64709090909,203.269486093495,109.062563834428,156.166024963961
"F1937","F","old",1937,3,31,-23.5,750,1650,-75,75,736,206.050223214286,6.60123011872888,0.504447268065894,"BUT","u",634.026454545454,1437.80481818182,503.644454545455,1671.46990909091,520.097454545455,1117.85045454545,562.473,1290.64709090909,203.269486093495,109.062563834428,156.166024963961
"F1937","F","old",1937,3,32,-22.5,900,1400,75,-175,1486,956.050223214286,7.3038432252777,1.20706037461472,"BOUGHT","o",634.026454545454,1437.80481818182,503.644454545455,1671.46990909091,520.097454545455,1117.85045454545,562.473,1290.64709090909,203.269486093495,109.062563834428,156.166024963961
"F1937","F","old",1937,3,33,-21.5,800,1750,-25,175,612,82.0502232142857,6.41673228251233,0.319949431849343,"BET","e",634.026454545454,1437.80481818182,503.644454545455,1671.46990909091,520.097454545455,1117.85045454545,562.473,1290.64709090909,203.269486093495,109.062563834428,156.166024963961
"F1937","F","old",1937,3,34,-20.5,850,1950,25,375,438,-91.9497767857143,6.08221891037645,-0.0145639402865365,"BET","e",634.026454545454,1437.80481818182,503.644454545455,1671.46990909091,520.097454545455,1117.85045454545,562.473,1290.64709090909,203.269486093495,109.062563834428,156.166024963961
"F1937","F","old",1937,3,35,-19.5,950,1700,125,125,691,161.050223214286,6.53813982376767,0.441356973104687,"BAT","ae",634.026454545454,1437.80481818182,503.644454545455,1671.46990909091,520.097454545455,1117.85045454545,562.473,1290.64709090909,203.269486093495,109.062563834428,156.166024963961
"F1937","F","old",1937,3,36,-18.5,800,1450,-25,-125,563,33.0502232142857,6.33327962813969,0.236496777476708,"BUT","u",634.026454545454,1437.80481818182,503.644454545455,1671.46990909091,520.097454545455,1117.85045454545,562.473,1290.64709090909,203.269486093495,109.062563834428,156.166024963961
"F1937","F","old",1937,3,37,-17.5,950,1200,125,-375,629,99.0502232142857,6.44413125670044,0.347348406037458,"BOUGHT","o",634.026454545454,1437.80481818182,503.644454545455,1671.46990909091,520.097454545455,1117.85045454545,562.473,1290.64709090909,203.269486093495,109.062563834428,156.166024963961
"F1937","F","old",1937,3,38,-16.5,750,1700,-75,125,1114,584.050223214286,7.01571242048723,0.918929569824247,"BET","e",634.026454545454,1437.80481818182,503.644454545455,1671.46990909091,520.097454545455,1117.85045454545,562.473,1290.64709090909,203.269486093495,109.062563834428,156.166024963961
"F1937","F","old",1937,3,39,-15.5,850,1350,25,-225,693,163.050223214286,6.5410299991899,0.44424714852692,"BOUGHT","o",634.026454545454,1437.80481818182,503.644454545455,1671.46990909091,520.097454545455,1117.85045454545,562.473,1290.64709090909,203.269486093495,109.062563834428,156.166024963961
"F1937","F","old",1937,3,40,-14.5,700,1550,-125,-25,423,-106.949776785714,6.04737217904628,-0.0494106716167053,"BUT","u",634.026454545454,1437.80481818182,503.644454545455,1671.46990909091,520.097454545455,1117.85045454545,562.473,1290.64709090909,203.269486093495,109.062563834428,156.166024963961
"F1937","F","old",1937,3,41,-13.5,850,1200,25,-375,782,252.050223214286,6.66185474054531,0.565071889882328,"BOUGHT","o",634.026454545454,1437.80481818182,503.644454545455,1671.46990909091,520.097454545455,1117.85045454545,562.473,1290.64709090909,203.269486093495,109.062563834428,156.166024963961
"F1937","F","old",1937,3,42,-12.5,800,1850,-25,275,444,-85.9497767857143,6.09582456243222,-0.000958288230758164,"BET","e",634.026454545454,1437.80481818182,503.644454545455,1671.46990909091,520.097454545455,1117.85045454545,562.473,1290.64709090909,203.269486093495,109.062563834428,156.166024963961
"F1937","F","old",1937,3,43,-11.5,950,1300,125,-275,628,98.0502232142857,6.4425401664682,0.345757315805216,"BOUGHT","o",634.026454545454,1437.80481818182,503.644454545455,1671.46990909091,520.097454545455,1117.85045454545,562.473,1290.64709090909,203.269486093495,109.062563834428,156.166024963961
"F1937","F","old",1937,3,44,-10.5,950,1950,125,375,495,-34.9497767857143,6.20455776256869,0.107774911905707,"BAT","ae",634.026454545454,1437.80481818182,503.644454545455,1671.46990909091,520.097454545455,1117.85045454545,562.473,1290.64709090909,203.269486093495,109.062563834428,156.166024963961
"F1937","F","old",1937,3,45,-9.5,750,1900,-75,325,394,-135.949776785714,5.97635090929793,-0.120431941365049,"BET","e",634.026454545454,1437.80481818182,503.644454545455,1671.46990909091,520.097454545455,1117.85045454545,562.473,1290.64709090909,203.269486093495,109.062563834428,156.166024963961
"F1937","F","old",1937,3,46,-8.5,700,1750,-125,175,1123,593.050223214286,7.02375895473844,0.92697610407546,"BUT","u",634.026454545454,1437.80481818182,503.644454545455,1671.46990909091,520.097454545455,1117.85045454545,562.473,1290.64709090909,203.269486093495,109.062563834428,156.166024963961
"F1937","F","old",1937,3,47,-7.5,850,1300,25,-275,436,-93.9497767857143,6.07764224334903,-0.0191406073139486,"BOUGHT","o",634.026454545454,1437.80481818182,503.644454545455,1671.46990909091,520.097454545455,1117.85045454545,562.473,1290.64709090909,203.269486093495,109.062563834428,156.166024963961
"F1937","F","old",1937,3,48,-6.5,950,1850,125,275,402,-127.949776785714,5.99645208861902,-0.100330762043962,"BAT","ae",634.026454545454,1437.80481818182,503.644454545455,1671.46990909091,520.097454545455,1117.85045454545,562.473,1290.64709090909,203.269486093495,109.062563834428,156.166024963961
"F1937","F","old",1937,3,49,-5.5,800,1550,-25,-25,423,-106.949776785714,6.04737217904628,-0.0494106716167053,"BUT","u",634.026454545454,1437.80481818182,503.644454545455,1671.46990909091,520.097454545455,1117.85045454545,562.473,1290.64709090909,203.269486093495,109.062563834428,156.166024963961
"F1937","F","old",1937,3,50,-4.5,750,1550,-75,-25,298,-231.949776785714,5.6970934865054,-0.399689364157578,"BUT","u",634.026454545454,1437.80481818182,503.644454545455,1671.46990909091,520.097454545455,1117.85045454545,562.473,1290.64709090909,203.269486093495,109.062563834428,156.166024963961
"F1937","F","old",1937,3,51,-3.5,900,1750,75,175,313,-216.949776785714,5.74620319054015,-0.35057966012283,"BAT","ae",634.026454545454,1437.80481818182,503.644454545455,1671.46990909091,520.097454545455,1117.85045454545,562.473,1290.64709090909,203.269486093495,109.062563834428,156.166024963961
"F1937","F","old",1937,3,52,-2.5,950,1900,125,325,966,436.050223214286,6.87316383421252,0.776380983549535,"BAT","ae",634.026454545454,1437.80481818182,503.644454545455,1671.46990909091,520.097454545455,1117.85045454545,562.473,1290.64709090909,203.269486093495,109.062563834428,156.166024963961
"F1937","F","old",1937,3,53,-1.5,950,1350,125,-225,440,-89.9497767857143,6.08677472691231,-0.0100081237506764,"BOUGHT","o",634.026454545454,1437.80481818182,503.644454545455,1671.46990909091,520.097454545455,1117.85045454545,562.473,1290.64709090909,203.269486093495,109.062563834428,156.166024963961
"F1937","F","old",1937,3,54,-0.5,800,1650,-25,75,482,-47.9497767857143,6.1779441140506,0.0811612633876173,"BUT","u",634.026454545454,1437.80481818182,503.644454545455,1671.46990909091,520.097454545455,1117.85045454545,562.473,1290.64709090909,203.269486093495,109.062563834428,156.166024963961
"F1937","F","old",1937,3,55,0.5,800,1300,-25,-275,645,115.050223214286,6.46925031679577,0.37246746613279,"BOUGHT","o",634.026454545454,1437.80481818182,503.644454545455,1671.46990909091,520.097454545455,1117.85045454545,562.473,1290.64709090909,203.269486093495,109.062563834428,156.166024963961
"F1937","F","old",1937,3,56,1.5,800,1800,-25,225,569,39.0502232142857,6.34388043412633,0.247097583463348,"BET","e",634.026454545454,1437.80481818182,503.644454545455,1671.46990909091,520.097454545455,1117.85045454545,562.473,1290.64709090909,203.269486093495,109.062563834428,156.166024963961
"F1937","F","old",1937,3,57,2.5,700,1650,-125,75,654,124.050223214286,6.4831073514572,0.386324500794216,"BUT","u",634.026454545454,1437.80481818182,503.644454545455,1671.46990909091,520.097454545455,1117.85045454545,562.473,1290.64709090909,203.269486093495,109.062563834428,156.166024963961
"F1937","F","old",1937,3,58,3.5,800,1950,-25,375,459,-70.9497767857143,6.12905021006055,0.0322673593975624,"BET","e",634.026454545454,1437.80481818182,503.644454545455,1671.46990909091,520.097454545455,1117.85045454545,562.473,1290.64709090909,203.269486093495,109.062563834428,156.166024963961
"F1937","F","old",1937,3,59,4.5,850,1650,25,75,339,-190.949776785714,5.82600010738045,-0.270782743282533,"BAT","ae",634.026454545454,1437.80481818182,503.644454545455,1671.46990909091,520.097454545455,1117.85045454545,562.473,1290.64709090909,203.269486093495,109.062563834428,156.166024963961
"F1937","F","old",1937,3,60,5.5,700,1350,-125,-225,926,396.050223214286,6.83087423464618,0.734091383983197,"BUT","u",634.026454545454,1437.80481818182,503.644454545455,1671.46990909091,520.097454545455,1117.85045454545,562.473,1290.64709090909,203.269486093495,109.062563834428,156.166024963961
"F1937","F","old",1937,3,61,6.5,900,1600,75,25,371,-158.949776785714,5.91620206260743,-0.180580788055548,"BAT","ae",634.026454545454,1437.80481818182,503.644454545455,1671.46990909091,520.097454545455,1117.85045454545,562.473,1290.64709090909,203.269486093495,109.062563834428,156.166024963961
"F1937","F","old",1937,3,62,7.5,850,1250,25,-325,552,22.0502232142857,6.31354804627709,0.216765195614112,"BOUGHT","o",634.026454545454,1437.80481818182,503.644454545455,1671.46990909091,520.097454545455,1117.85045454545,562.473,1290.64709090909,203.269486093495,109.062563834428,156.166024963961
"F1937","F","old",1937,3,63,8.5,700,1200,-125,-375,537,7.05022321428567,6.28599809450886,0.189215243845882,"BUT","u",634.026454545454,1437.80481818182,503.644454545455,1671.46990909091,520.097454545455,1117.85045454545,562.473,1290.64709090909,203.269486093495,109.062563834428,156.166024963961
"F1937","F","old",1937,3,64,9.5,750,1300,-75,-275,268,-261.949776785714,5.59098698051086,-0.505795870152126,"BUT","u",634.026454545454,1437.80481818182,503.644454545455,1671.46990909091,520.097454545455,1117.85045454545,562.473,1290.64709090909,203.269486093495,109.062563834428,156.166024963961
"F1937","F","old",1937,3,65,10.5,750,1500,-75,-75,1018,488.050223214286,6.92559519711047,0.828812346447485,"BUT","u",634.026454545454,1437.80481818182,503.644454545455,1671.46990909091,520.097454545455,1117.85045454545,562.473,1290.64709090909,203.269486093495,109.062563834428,156.166024963961
"F1937","F","old",1937,3,66,11.5,950,1750,125,175,322,-207.949776785714,5.77455154554441,-0.322231305118574,"BAT","ae",634.026454545454,1437.80481818182,503.644454545455,1671.46990909091,520.097454545455,1117.85045454545,562.473,1290.64709090909,203.269486093495,109.062563834428,156.166024963961
"F1937","F","old",1937,3,67,12.5,900,1700,75,125,254,-275.949776785714,5.53733426701854,-0.559448583644446,"BAT","ae",634.026454545454,1437.80481818182,503.644454545455,1671.46990909091,520.097454545455,1117.85045454545,562.473,1290.64709090909,203.269486093495,109.062563834428,156.166024963961
"F1937","F","old",1937,3,68,13.5,850,1750,25,175,296,-233.949776785714,5.69035945432406,-0.406423396338923,"BAT","ae",634.026454545454,1437.80481818182,503.644454545455,1671.46990909091,520.097454545455,1117.85045454545,562.473,1290.64709090909,203.269486093495,109.062563834428,156.166024963961
"F1937","F","old",1937,3,69,14.5,700,1250,-125,-325,636,106.050223214286,6.45519856334012,0.358415712677139,"BUT","u",634.026454545454,1437.80481818182,503.644454545455,1671.46990909091,520.097454545455,1117.85045454545,562.473,1290.64709090909,203.269486093495,109.062563834428,156.166024963961
"F1937","F","old",1937,3,70,15.5,700,1900,-125,325,559,29.0502232142857,6.3261494731551,0.229366622492116,"BET","e",634.026454545454,1437.80481818182,503.644454545455,1671.46990909091,520.097454545455,1117.85045454545,562.473,1290.64709090909,203.269486093495,109.062563834428,156.166024963961
"F1937","F","old",1937,3,71,16.5,850,1550,25,-25,353,-176.949776785714,5.8664680569333,-0.230314793729686,"BAT","ae",634.026454545454,1437.80481818182,503.644454545455,1671.46990909091,520.097454545455,1117.85045454545,562.473,1290.64709090909,203.269486093495,109.062563834428,156.166024963961
"F1937","F","old",1937,3,72,17.5,750,1950,-75,375,391,-138.949776785714,5.96870755998537,-0.128075290677617,"BET","e",634.026454545454,1437.80481818182,503.644454545455,1671.46990909091,520.097454545455,1117.85045454545,562.473,1290.64709090909,203.269486093495,109.062563834428,156.166024963961
"F1937","F","old",1937,3,73,18.5,700,1400,-125,-175,393,-136.949776785714,5.97380961186926,-0.122973238793722,"BUT","u",634.026454545454,1437.80481818182,503.644454545455,1671.46990909091,520.097454545455,1117.85045454545,562.473,1290.64709090909,203.269486093495,109.062563834428,156.166024963961
"F1937","F","old",1937,3,74,19.5,800,1700,-25,125,963,433.050223214286,6.87005341179813,0.773270561135143,"BUT","u",634.026454545454,1437.80481818182,503.644454545455,1671.46990909091,520.097454545455,1117.85045454545,562.473,1290.64709090909,203.269486093495,109.062563834428,156.166024963961
"F1937","F","old",1937,3,75,20.5,750,1600,-75,25,309,-220.949776785714,5.73334127689775,-0.363441573765237,"BUT","u",634.026454545454,1437.80481818182,503.644454545455,1671.46990909091,520.097454545455,1117.85045454545,562.473,1290.64709090909,203.269486093495,109.062563834428,156.166024963961
"F1937","F","old",1937,3,76,21.5,900,1800,75,225,338,-191.949776785714,5.82304589548302,-0.273736955179964,"BAT","ae",634.026454545454,1437.80481818182,503.644454545455,1671.46990909091,520.097454545455,1117.85045454545,562.473,1290.64709090909,203.269486093495,109.062563834428,156.166024963961
"F1937","F","old",1937,3,77,22.5,900,1200,75,-375,624,94.0502232142857,6.43615036836943,0.339367517706445,"BOUGHT","o",634.026454545454,1437.80481818182,503.644454545455,1671.46990909091,520.097454545455,1117.85045454545,562.473,1290.64709090909,203.269486093495,109.062563834428,156.166024963961
"F1937","F","old",1937,3,78,23.5,750,1750,-75,175,575,45.0502232142857,6.35437004079735,0.257587190134368,"BET","e",634.026454545454,1437.80481818182,503.644454545455,1671.46990909091,520.097454545455,1117.85045454545,562.473,1290.64709090909,203.269486093495,109.062563834428,156.166024963961
"F1937","F","old",1937,3,79,24.5,700,1500,-125,-75,475,-54.9497767857143,6.16331480403464,0.0665319533716584,"BUT","u",634.026454545454,1437.80481818182,503.644454545455,1671.46990909091,520.097454545455,1117.85045454545,562.473,1290.64709090909,203.269486093495,109.062563834428,156.166024963961
"F1937","F","old",1937,3,80,25.5,750,1250,-75,-325,938,408.050223214286,6.84374994900622,0.746967098343242,"BUT","u",634.026454545454,1437.80481818182,503.644454545455,1671.46990909091,520.097454545455,1117.85045454545,562.473,1290.64709090909,203.269486093495,109.062563834428,156.166024963961
"F1937","F","old",1937,3,81,26.5,750,1800,-75,225,395,-134.949776785714,5.97888576490112,-0.117897085761861,"BET","e",634.026454545454,1437.80481818182,503.644454545455,1671.46990909091,520.097454545455,1117.85045454545,562.473,1290.64709090909,203.269486093495,109.062563834428,156.166024963961
"F1937","F","old",1937,3,82,27.5,950,1500,125,-75,362,-167.949776785714,5.89164421182577,-0.205138638837211,"BAT","ae",634.026454545454,1437.80481818182,503.644454545455,1671.46990909091,520.097454545455,1117.85045454545,562.473,1290.64709090909,203.269486093495,109.062563834428,156.166024963961
"F1937","F","old",1937,3,83,28.5,900,1450,75,-125,530,0.0502232142856656,6.27287700654617,0.176094155883185,"BOUGHT","o",634.026454545454,1437.80481818182,503.644454545455,1671.46990909091,520.097454545455,1117.85045454545,562.473,1290.64709090909,203.269486093495,109.062563834428,156.166024963961
"F1937","F","old",1937,3,84,29.5,850,1500,25,-75,375,-154.949776785714,5.92692602597041,-0.169856824692572,"BOUGHT","o",634.026454545454,1437.80481818182,503.644454545455,1671.46990909091,520.097454545455,1117.85045454545,562.473,1290.64709090909,203.269486093495,109.062563834428,156.166024963961
"F1937","F","old",1937,3,85,30.5,850,1800,25,225,391,-138.949776785714,5.96870755998537,-0.128075290677617,"BET","e",634.026454545454,1437.80481818182,503.644454545455,1671.46990909091,520.097454545455,1117.85045454545,562.473,1290.64709090909,203.269486093495,109.062563834428,156.166024963961
"F1937","F","old",1937,3,86,31.5,950,1250,125,-325,920,390.050223214286,6.82437367004309,0.727590819380104,"BOUGHT","o",634.026454545454,1437.80481818182,503.644454545455,1671.46990909091,520.097454545455,1117.85045454545,562.473,1290.64709090909,203.269486093495,109.062563834428,156.166024963961
"F1937","F","old",1937,3,87,32.5,900,1500,75,-75,313,-216.949776785714,5.74620319054015,-0.35057966012283,"BAT","ae",634.026454545454,1437.80481818182,503.644454545455,1671.46990909091,520.097454545455,1117.85045454545,562.473,1290.64709090909,203.269486093495,109.062563834428,156.166024963961
"F1937","F","old",1937,3,88,33.5,850,1700,25,125,477,-52.9497767857143,6.16751649088834,0.0707336402253587,"BET","e",634.026454545454,1437.80481818182,503.644454545455,1671.46990909091,520.097454545455,1117.85045454545,562.473,1290.64709090909,203.269486093495,109.062563834428,156.166024963961
"F1937","F","old",1937,3,89,34.5,700,1450,-125,-125,496,-33.9497767857143,6.20657592672493,0.109793076061945,"BUT","u",634.026454545454,1437.80481818182,503.644454545455,1671.46990909091,520.097454545455,1117.85045454545,562.473,1290.64709090909,203.269486093495,109.062563834428,156.166024963961
"F1937","F","old",1937,3,90,35.5,850,1900,25,325,371,-158.949776785714,5.91620206260743,-0.180580788055548,"BET","e",634.026454545454,1437.80481818182,503.644454545455,1671.46990909091,520.097454545455,1117.85045454545,562.473,1290.64709090909,203.269486093495,109.062563834428,156.166024963961
"F1937","F","old",1937,3,91,36.5,800,1500,-25,-75,320,-209.949776785714,5.76832099579377,-0.328461854869211,"BUT","u",634.026454545454,1437.80481818182,503.644454545455,1671.46990909091,520.097454545455,1117.85045454545,562.473,1290.64709090909,203.269486093495,109.062563834428,156.166024963961
"F1937","F","old",1937,3,92,37.5,850,1450,25,-125,544,14.0502232142857,6.29894924685594,0.202166396192959,"BOUGHT","o",634.026454545454,1437.80481818182,503.644454545455,1671.46990909091,520.097454545455,1117.85045454545,562.473,1290.64709090909,203.269486093495,109.062563834428,156.166024963961
"F1937","F","old",1937,3,93,38.5,700,1600,-125,25,589,59.0502232142857,6.37842618365159,0.281643332988604,"BUT","u",634.026454545454,1437.80481818182,503.644454545455,1671.46990909091,520.097454545455,1117.85045454545,562.473,1290.64709090909,203.269486093495,109.062563834428,156.166024963961
"F1937","F","old",1937,3,94,39.5,750,1200,-75,-375,693,163.050223214286,6.5410299991899,0.44424714852692,"BOUGHT","o",634.026454545454,1437.80481818182,503.644454545455,1671.46990909091,520.097454545455,1117.85045454545,562.473,1290.64709090909,203.269486093495,109.062563834428,156.166024963961
"F1937","F","old",1937,3,95,40.5,900,1350,75,-225,540,10.0502232142857,6.29156913955832,0.194786288895338,"BOUGHT","o",634.026454545454,1437.80481818182,503.644454545455,1671.46990909091,520.097454545455,1117.85045454545,562.473,1290.64709090909,203.269486093495,109.062563834428,156.166024963961
"F1937","F","old",1937,3,96,41.5,800,1250,-25,-325,990,460.050223214286,6.89770494312864,0.800922092465653,"BOUGHT","o",634.026454545454,1437.80481818182,503.644454545455,1671.46990909091,520.097454545455,1117.85045454545,562.473,1290.64709090909,203.269486093495,109.062563834428,156.166024963961
"F1937","F","old",1937,3,97,42.5,750,1450,-75,-125,754,224.050223214286,6.62539236800796,0.528609517344973,"BUT","u",634.026454545454,1437.80481818182,503.644454545455,1671.46990909091,520.097454545455,1117.85045454545,562.473,1290.64709090909,203.269486093495,109.062563834428,156.166024963961
"F1937","F","old",1937,3,98,43.5,900,1850,75,275,388,-141.949776785714,5.96100533962327,-0.135777511039709,"BAT","ae",634.026454545454,1437.80481818182,503.644454545455,1671.46990909091,520.097454545455,1117.85045454545,562.473,1290.64709090909,203.269486093495,109.062563834428,156.166024963961
"F1937","F","old",1937,3,99,44.5,950,1400,125,-175,728,198.050223214286,6.59030104819669,0.493518197533703,"BOUGHT","o",634.026454545454,1437.80481818182,503.644454545455,1671.46990909091,520.097454545455,1117.85045454545,562.473,1290.64709090909,203.269486093495,109.062563834428,156.166024963961
"F1937","F","old",1937,3,100,45.5,750,1400,-75,-175,388,-141.949776785714,5.96100533962327,-0.135777511039709,"BUT","u",634.026454545454,1437.80481818182,503.644454545455,1671.46990909091,520.097454545455,1117.85045454545,562.473,1290.64709090909,203.269486093495,109.062563834428,156.166024963961
"F1937","F","old",1937,3,101,46.5,850,1400,25,-175,544,14.0502232142857,6.29894924685594,0.202166396192959,"BOUGHT","o",634.026454545454,1437.80481818182,503.644454545455,1671.46990909091,520.097454545455,1117.85045454545,562.473,1290.64709090909,203.269486093495,109.062563834428,156.166024963961
"F1937","F","old",1937,3,102,47.5,950,1550,125,-25,391,-138.949776785714,5.96870755998537,-0.128075290677617,"BAT","ae",634.026454545454,1437.80481818182,503.644454545455,1671.46990909091,520.097454545455,1117.85045454545,562.473,1290.64709090909,203.269486093495,109.062563834428,156.166024963961
"F1950","F","old",1950,3,7,-47.5,900,1650,75,75,342,-187.949776785714,5.8348107370626,-0.261972113600378,"BAT","ae",576.296181818182,1458.83072727273,549.138818181818,1645.32118181818,559.089272727273,1159.247,566.249363636364,1257.967,179.150657320628,180.887575367687,180.019116344158
"F1950","F","old",1950,3,8,-46.5,750,1850,-75,275,317,-212.949776785714,5.75890177387728,-0.337881076785703,"BET","e",576.296181818182,1458.83072727273,549.138818181818,1645.32118181818,559.089272727273,1159.247,566.249363636364,1257.967,179.150657320628,180.887575367687,180.019116344158
"F1950","F","old",1950,3,9,-45.5,800,1400,-25,-175,324,-205.949776785714,5.78074351579233,-0.316039334870654,"BUT","u",576.296181818182,1458.83072727273,549.138818181818,1645.32118181818,559.089272727273,1159.247,566.249363636364,1257.967,179.150657320628,180.887575367687,180.019116344158
"F1950","F","old",1950,3,10,-44.5,850,1850,25,275,330,-199.949776785714,5.79909265446053,-0.297690196202457,"BAT","ae",576.296181818182,1458.83072727273,549.138818181818,1645.32118181818,559.089272727273,1159.247,566.249363636364,1257.967,179.150657320628,180.887575367687,180.019116344158
"F1950","F","old",1950,3,11,-43.5,800,1600,-25,25,369,-160.949776785714,5.91079664404053,-0.185986206622456,"BAT","ae",576.296181818182,1458.83072727273,549.138818181818,1645.32118181818,559.089272727273,1159.247,566.249363636364,1257.967,179.150657320628,180.887575367687,180.019116344158
"F1950","F","old",1950,3,12,-42.5,800,1200,-25,-375,428,-101.949776785714,6.0591231955818,-0.0376596550811863,"BUT","u",576.296181818182,1458.83072727273,549.138818181818,1645.32118181818,559.089272727273,1159.247,566.249363636364,1257.967,179.150657320628,180.887575367687,180.019116344158
"F1950","F","old",1950,3,13,-41.5,750,1350,-75,-225,354,-175.949776785714,5.86929691313377,-0.227485937529209,"BUT","u",576.296181818182,1458.83072727273,549.138818181818,1645.32118181818,559.089272727273,1159.247,566.249363636364,1257.967,179.150657320628,180.887575367687,180.019116344158
"F1950","F","old",1950,3,14,-40.5,950,1600,125,25,306,-223.949776785714,5.72358510195238,-0.373197748710602,"BAT","ae",576.296181818182,1458.83072727273,549.138818181818,1645.32118181818,559.089272727273,1159.247,566.249363636364,1257.967,179.150657320628,180.887575367687,180.019116344158
"F1950","F","old",1950,3,15,-39.5,900,1250,75,-325,446,-83.9497767857143,6.10031895202006,0.00353610135708138,"BUT","u",576.296181818182,1458.83072727273,549.138818181818,1645.32118181818,559.089272727273,1159.247,566.249363636364,1257.967,179.150657320628,180.887575367687,180.019116344158
"F1950","F","old",1950,3,16,-38.5,950,1800,125,225,343,-186.949776785714,5.83773044716594,-0.259052403497043,"BAT","ae",576.296181818182,1458.83072727273,549.138818181818,1645.32118181818,559.089272727273,1159.247,566.249363636364,1257.967,179.150657320628,180.887575367687,180.019116344158
"F1950","F","old",1950,3,17,-37.5,800,1350,-25,-225,718,188.050223214286,6.57646956904822,0.479686718385241,"BUT","u",576.296181818182,1458.83072727273,549.138818181818,1645.32118181818,559.089272727273,1159.247,566.249363636364,1257.967,179.150657320628,180.887575367687,180.019116344158
"F1950","F","old",1950,3,18,-36.5,900,1900,75,325,789,259.050223214286,6.67076632084587,0.573983470182891,"BAT","ae",576.296181818182,1458.83072727273,549.138818181818,1645.32118181818,559.089272727273,1159.247,566.249363636364,1257.967,179.150657320628,180.887575367687,180.019116344158
"F1950","F","old",1950,3,19,-35.5,700,1700,-125,125,2396,1866.05022321429,7.78155595923534,1.68477310857236,"BET","e",576.296181818182,1458.83072727273,549.138818181818,1645.32118181818,559.089272727273,1159.247,566.249363636364,1257.967,179.150657320628,180.887575367687,180.019116344158
"F1950","F","old",1950,3,20,-34.5,950,1650,125,75,390,-139.949776785714,5.96614673912369,-0.130636111539291,"BAT","ae",576.296181818182,1458.83072727273,549.138818181818,1645.32118181818,559.089272727273,1159.247,566.249363636364,1257.967,179.150657320628,180.887575367687,180.019116344158
"F1950","F","old",1950,3,21,-33.5,700,1950,-125,375,297,-232.949776785714,5.6937321388027,-0.403050711860283,"BET","e",576.296181818182,1458.83072727273,549.138818181818,1645.32118181818,559.089272727273,1159.247,566.249363636364,1257.967,179.150657320628,180.887575367687,180.019116344158
"F1950","F","old",1950,3,22,-32.5,800,1900,-25,325,1067,537.050223214286,6.97260625130175,0.875823400638771,"BET","e",576.296181818182,1458.83072727273,549.138818181818,1645.32118181818,559.089272727273,1159.247,566.249363636364,1257.967,179.150657320628,180.887575367687,180.019116344158
"F1950","F","old",1950,3,23,-31.5,900,1550,75,-25,309,-220.949776785714,5.73334127689775,-0.363441573765237,"BAT","ae",576.296181818182,1458.83072727273,549.138818181818,1645.32118181818,559.089272727273,1159.247,566.249363636364,1257.967,179.150657320628,180.887575367687,180.019116344158
"F1950","F","old",1950,3,24,-30.5,900,1950,75,375,604,74.0502232142857,6.40357419793482,0.306791347271832,"BAT","ae",576.296181818182,1458.83072727273,549.138818181818,1645.32118181818,559.089272727273,1159.247,566.249363636364,1257.967,179.150657320628,180.887575367687,180.019116344158
"F1950","F","old",1950,3,25,-29.5,900,1300,75,-275,830,300.050223214286,6.72142570079064,0.62464285012766,"BUT","u",576.296181818182,1458.83072727273,549.138818181818,1645.32118181818,559.089272727273,1159.247,566.249363636364,1257.967,179.150657320628,180.887575367687,180.019116344158
"F1950","F","old",1950,3,26,-28.5,700,1800,-125,225,797,267.050223214286,6.68085467879022,0.584071828127232,"BET","e",576.296181818182,1458.83072727273,549.138818181818,1645.32118181818,559.089272727273,1159.247,566.249363636364,1257.967,179.150657320628,180.887575367687,180.019116344158
"F1950","F","old",1950,3,27,-27.5,700,1300,-125,-275,342,-187.949776785714,5.8348107370626,-0.261972113600378,"BUT","u",576.296181818182,1458.83072727273,549.138818181818,1645.32118181818,559.089272727273,1159.247,566.249363636364,1257.967,179.150657320628,180.887575367687,180.019116344158
"F1950","F","old",1950,3,28,-26.5,850,1600,25,25,403,-126.949776785714,5.99893656194668,-0.0978462887163003,"BAT","ae",576.296181818182,1458.83072727273,549.138818181818,1645.32118181818,559.089272727273,1159.247,566.249363636364,1257.967,179.150657320628,180.887575367687,180.019116344158
"F1950","F","old",1950,3,29,-25.5,700,1850,-125,275,321,-208.949776785714,5.77144112313002,-0.325341727532967,"BET","e",576.296181818182,1458.83072727273,549.138818181818,1645.32118181818,559.089272727273,1159.247,566.249363636364,1257.967,179.150657320628,180.887575367687,180.019116344158
"F1950","F","old",1950,3,30,-24.5,950,1450,125,-125,296,-233.949776785714,5.69035945432406,-0.406423396338923,"BAT","ae",576.296181818182,1458.83072727273,549.138818181818,1645.32118181818,559.089272727273,1159.247,566.249363636364,1257.967,179.150657320628,180.887575367687,180.019116344158
"F1950","F","old",1950,3,31,-23.5,750,1650,-75,75,834,304.050223214286,6.72623340235875,0.629450551695764,"BUT","u",576.296181818182,1458.83072727273,549.138818181818,1645.32118181818,559.089272727273,1159.247,566.249363636364,1257.967,179.150657320628,180.887575367687,180.019116344158
"F1950","F","old",1950,3,32,-22.5,900,1400,75,-175,389,-140.949776785714,5.96357934361845,-0.133203507044537,"BAT","ae",576.296181818182,1458.83072727273,549.138818181818,1645.32118181818,559.089272727273,1159.247,566.249363636364,1257.967,179.150657320628,180.887575367687,180.019116344158
"F1950","F","old",1950,3,33,-21.5,800,1750,-25,175,392,-137.949776785714,5.97126183979046,-0.125521010872521,"BET","e",576.296181818182,1458.83072727273,549.138818181818,1645.32118181818,559.089272727273,1159.247,566.249363636364,1257.967,179.150657320628,180.887575367687,180.019116344158
"F1950","F","old",1950,3,34,-20.5,850,1950,25,375,267,-262.949776785714,5.58724865840025,-0.509534192262733,"BET","e",576.296181818182,1458.83072727273,549.138818181818,1645.32118181818,559.089272727273,1159.247,566.249363636364,1257.967,179.150657320628,180.887575367687,180.019116344158
"F1950","F","old",1950,3,35,-19.5,950,1700,125,125,307,-222.949776785714,5.7268477475872,-0.369935103075786,"BAT","ae",576.296181818182,1458.83072727273,549.138818181818,1645.32118181818,559.089272727273,1159.247,566.249363636364,1257.967,179.150657320628,180.887575367687,180.019116344158
"F1950","F","old",1950,3,36,-18.5,800,1450,-25,-125,347,-182.949776785714,5.84932477994686,-0.247458070716124,"BUT","u",576.296181818182,1458.83072727273,549.138818181818,1645.32118181818,559.089272727273,1159.247,566.249363636364,1257.967,179.150657320628,180.887575367687,180.019116344158
"F1950","F","old",1950,3,37,-17.5,950,1200,125,-375,3363,2833.05022321429,8.12058871174027,2.02380586107729,"BUT","u",576.296181818182,1458.83072727273,549.138818181818,1645.32118181818,559.089272727273,1159.247,566.249363636364,1257.967,179.150657320628,180.887575367687,180.019116344158
"F1950","F","old",1950,3,38,-16.5,750,1700,-75,125,2193,1663.05022321429,7.69302574841789,1.59624289775491,"BOUGHT","o",576.296181818182,1458.83072727273,549.138818181818,1645.32118181818,559.089272727273,1159.247,566.249363636364,1257.967,179.150657320628,180.887575367687,180.019116344158
"F1950","F","old",1950,3,39,-15.5,850,1350,25,-225,639,109.050223214286,6.45990445437753,0.363121603714552,"BUT","u",576.296181818182,1458.83072727273,549.138818181818,1645.32118181818,559.089272727273,1159.247,566.249363636364,1257.967,179.150657320628,180.887575367687,180.019116344158
"F1950","F","old",1950,3,40,-14.5,700,1550,-125,-25,1642,1112.05022321429,7.40367029001237,1.30688743934939,"BOUGHT","o",576.296181818182,1458.83072727273,549.138818181818,1645.32118181818,559.089272727273,1159.247,566.249363636364,1257.967,179.150657320628,180.887575367687,180.019116344158
"F1950","F","old",1950,3,41,-13.5,850,1200,25,-375,847,317.050223214286,6.74170069465205,0.644917843989072,"BUT","u",576.296181818182,1458.83072727273,549.138818181818,1645.32118181818,559.089272727273,1159.247,566.249363636364,1257.967,179.150657320628,180.887575367687,180.019116344158
"F1950","F","old",1950,3,42,-12.5,800,1850,-25,275,399,-130.949776785714,5.98896141688986,-0.107821433773119,"BET","e",576.296181818182,1458.83072727273,549.138818181818,1645.32118181818,559.089272727273,1159.247,566.249363636364,1257.967,179.150657320628,180.887575367687,180.019116344158
"F1950","F","old",1950,3,43,-11.5,950,1300,125,-275,353,-176.949776785714,5.8664680569333,-0.230314793729686,"BAT","ae",576.296181818182,1458.83072727273,549.138818181818,1645.32118181818,559.089272727273,1159.247,566.249363636364,1257.967,179.150657320628,180.887575367687,180.019116344158
"F1950","F","old",1950,3,44,-10.5,950,1950,125,375,243,-286.949776785714,5.49306144334055,-0.603721407322435,"BAT","ae",576.296181818182,1458.83072727273,549.138818181818,1645.32118181818,559.089272727273,1159.247,566.249363636364,1257.967,179.150657320628,180.887575367687,180.019116344158
"F1950","F","old",1950,3,45,-9.5,750,1900,-75,325,823,293.050223214286,6.71295620067707,0.616173350014087,"BET","e",576.296181818182,1458.83072727273,549.138818181818,1645.32118181818,559.089272727273,1159.247,566.249363636364,1257.967,179.150657320628,180.887575367687,180.019116344158
"F1950","F","old",1950,3,46,-8.5,700,1750,-125,175,1631,1101.05022321429,7.39694860262101,1.30016575195803,"BOUGHT","o",576.296181818182,1458.83072727273,549.138818181818,1645.32118181818,559.089272727273,1159.247,566.249363636364,1257.967,179.150657320628,180.887575367687,180.019116344158
"F1950","F","old",1950,3,47,-7.5,850,1300,25,-275,617,87.0502232142857,6.42486902390539,0.328086173242405,"BUT","u",576.296181818182,1458.83072727273,549.138818181818,1645.32118181818,559.089272727273,1159.247,566.249363636364,1257.967,179.150657320628,180.887575367687,180.019116344158
"F1950","F","old",1950,3,48,-6.5,950,1850,125,275,315,-214.949776785714,5.75257263882563,-0.34421021183735,"BAT","ae",576.296181818182,1458.83072727273,549.138818181818,1645.32118181818,559.089272727273,1159.247,566.249363636364,1257.967,179.150657320628,180.887575367687,180.019116344158
"F1950","F","old",1950,3,49,-5.5,800,1550,-25,-25,774,244.050223214286,6.65157187358973,0.554789022926744,"BUT","u",576.296181818182,1458.83072727273,549.138818181818,1645.32118181818,559.089272727273,1159.247,566.249363636364,1257.967,179.150657320628,180.887575367687,180.019116344158
"F1950","F","old",1950,3,50,-4.5,750,1550,-75,-25,1264,734.050223214286,7.1420365747068,1.04525372404382,"BUT","u",576.296181818182,1458.83072727273,549.138818181818,1645.32118181818,559.089272727273,1159.247,566.249363636364,1257.967,179.150657320628,180.887575367687,180.019116344158
"F1950","F","old",1950,3,51,-3.5,900,1750,75,175,544,14.0502232142857,6.29894924685594,0.202166396192959,"BAT","ae",576.296181818182,1458.83072727273,549.138818181818,1645.32118181818,559.089272727273,1159.247,566.249363636364,1257.967,179.150657320628,180.887575367687,180.019116344158
"F1950","F","old",1950,3,52,-2.5,950,1900,125,325,441,-88.9497767857143,6.08904487544685,-0.00773797521613684,"BAT","ae",576.296181818182,1458.83072727273,549.138818181818,1645.32118181818,559.089272727273,1159.247,566.249363636364,1257.967,179.150657320628,180.887575367687,180.019116344158
"F1950","F","old",1950,3,53,-1.5,950,1350,125,-225,602,72.0502232142857,6.40025744530882,0.303474594645838,"BUT","u",576.296181818182,1458.83072727273,549.138818181818,1645.32118181818,559.089272727273,1159.247,566.249363636364,1257.967,179.150657320628,180.887575367687,180.019116344158
"F1950","F","old",1950,3,54,-0.5,800,1650,-25,75,799,269.050223214286,6.68336094576627,0.586578095103292,"BOUGHT","o",576.296181818182,1458.83072727273,549.138818181818,1645.32118181818,559.089272727273,1159.247,566.249363636364,1257.967,179.150657320628,180.887575367687,180.019116344158
"F1950","F","old",1950,3,55,0.5,800,1300,-25,-275,500,-29.9497767857143,6.21460809842219,0.117825247759209,"BUT","u",576.296181818182,1458.83072727273,549.138818181818,1645.32118181818,559.089272727273,1159.247,566.249363636364,1257.967,179.150657320628,180.887575367687,180.019116344158
"F1950","F","old",1950,3,56,1.5,800,1800,-25,225,337,-192.949776785714,5.82008293035236,-0.276699920310621,"BET","e",576.296181818182,1458.83072727273,549.138818181818,1645.32118181818,559.089272727273,1159.247,566.249363636364,1257.967,179.150657320628,180.887575367687,180.019116344158
"F1950","F","old",1950,3,57,2.5,700,1650,-125,75,647,117.050223214286,6.4723462945009,0.375563443837918,"BOUGHT","o",576.296181818182,1458.83072727273,549.138818181818,1645.32118181818,559.089272727273,1159.247,566.249363636364,1257.967,179.150657320628,180.887575367687,180.019116344158
"F1950","F","old",1950,3,58,3.5,800,1950,-25,375,390,-139.949776785714,5.96614673912369,-0.130636111539291,"BET","e",576.296181818182,1458.83072727273,549.138818181818,1645.32118181818,559.089272727273,1159.247,566.249363636364,1257.967,179.150657320628,180.887575367687,180.019116344158
"F1950","F","old",1950,3,59,4.5,850,1650,25,75,438,-91.9497767857143,6.08221891037645,-0.0145639402865365,"BAT","ae",576.296181818182,1458.83072727273,549.138818181818,1645.32118181818,559.089272727273,1159.247,566.249363636364,1257.967,179.150657320628,180.887575367687,180.019116344158
"F1950","F","old",1950,3,60,5.5,700,1350,-125,-225,569,39.0502232142857,6.34388043412633,0.247097583463348,"BUT","u",576.296181818182,1458.83072727273,549.138818181818,1645.32118181818,559.089272727273,1159.247,566.249363636364,1257.967,179.150657320628,180.887575367687,180.019116344158
"F1950","F","old",1950,3,61,6.5,900,1600,75,25,325,-204.949776785714,5.78382518232974,-0.312957668333246,"BAT","ae",576.296181818182,1458.83072727273,549.138818181818,1645.32118181818,559.089272727273,1159.247,566.249363636364,1257.967,179.150657320628,180.887575367687,180.019116344158
"F1950","F","old",1950,3,62,7.5,850,1250,25,-325,370,-159.949776785714,5.91350300563827,-0.183279845024713,"BUT","u",576.296181818182,1458.83072727273,549.138818181818,1645.32118181818,559.089272727273,1159.247,566.249363636364,1257.967,179.150657320628,180.887575367687,180.019116344158
"F1950","F","old",1950,3,63,8.5,700,1200,-125,-375,426,-103.949776785714,6.05443934626937,-0.042343504393612,"BOUGHT","o",576.296181818182,1458.83072727273,549.138818181818,1645.32118181818,559.089272727273,1159.247,566.249363636364,1257.967,179.150657320628,180.887575367687,180.019116344158
"F1950","F","old",1950,3,64,9.5,750,1300,-75,-275,262,-267.949776785714,5.5683445037611,-0.528438346901886,"BOUGHT","o",576.296181818182,1458.83072727273,549.138818181818,1645.32118181818,559.089272727273,1159.247,566.249363636364,1257.967,179.150657320628,180.887575367687,180.019116344158
"F1950","F","old",1950,3,65,10.5,750,1500,-75,-75,1017,487.050223214286,6.92461239604856,0.827829545385577,"BUT","u",576.296181818182,1458.83072727273,549.138818181818,1645.32118181818,559.089272727273,1159.247,566.249363636364,1257.967,179.150657320628,180.887575367687,180.019116344158
"F1950","F","old",1950,3,66,11.5,950,1750,125,175,287,-242.949776785714,5.65948221575962,-0.437300634903361,"BAT","ae",576.296181818182,1458.83072727273,549.138818181818,1645.32118181818,559.089272727273,1159.247,566.249363636364,1257.967,179.150657320628,180.887575367687,180.019116344158
"F1950","F","old",1950,3,67,12.5,900,1700,75,125,192,-337.949776785714,5.25749537202778,-0.839287478635201,"BAT","ae",576.296181818182,1458.83072727273,549.138818181818,1645.32118181818,559.089272727273,1159.247,566.249363636364,1257.967,179.150657320628,180.887575367687,180.019116344158
"F1950","F","old",1950,3,68,13.5,850,1750,25,175,172,-357.949776785714,5.14749447681345,-0.94928837384953,"BAT","ae",576.296181818182,1458.83072727273,549.138818181818,1645.32118181818,559.089272727273,1159.247,566.249363636364,1257.967,179.150657320628,180.887575367687,180.019116344158
"F1950","F","old",1950,3,69,14.5,700,1250,-125,-325,789,259.050223214286,6.67076632084587,0.573983470182891,"BUT","u",576.296181818182,1458.83072727273,549.138818181818,1645.32118181818,559.089272727273,1159.247,566.249363636364,1257.967,179.150657320628,180.887575367687,180.019116344158
"F1950","F","old",1950,3,70,15.5,700,1900,-125,325,332,-197.949776785714,5.80513496891649,-0.291647881746495,"BET","e",576.296181818182,1458.83072727273,549.138818181818,1645.32118181818,559.089272727273,1159.247,566.249363636364,1257.967,179.150657320628,180.887575367687,180.019116344158
"F1950","F","old",1950,3,71,16.5,850,1550,25,-25,380,-149.949776785714,5.94017125272043,-0.156611597942551,"BAT","ae",576.296181818182,1458.83072727273,549.138818181818,1645.32118181818,559.089272727273,1159.247,566.249363636364,1257.967,179.150657320628,180.887575367687,180.019116344158
"F1950","F","old",1950,3,72,17.5,750,1950,-75,375,355,-174.949776785714,5.87211778947542,-0.224665061187567,"BET","e",576.296181818182,1458.83072727273,549.138818181818,1645.32118181818,559.089272727273,1159.247,566.249363636364,1257.967,179.150657320628,180.887575367687,180.019116344158
"F1950","F","old",1950,3,73,18.5,700,1400,-125,-175,1057,527.050223214286,6.96318998587024,0.866407135207255,"BOUGHT","o",576.296181818182,1458.83072727273,549.138818181818,1645.32118181818,559.089272727273,1159.247,566.249363636364,1257.967,179.150657320628,180.887575367687,180.019116344158
"F1950","F","old",1950,3,74,19.5,800,1700,-25,125,1273,743.050223214286,7.14913159855741,1.05234874789442,"BET","e",576.296181818182,1458.83072727273,549.138818181818,1645.32118181818,559.089272727273,1159.247,566.249363636364,1257.967,179.150657320628,180.887575367687,180.019116344158
"F1950","F","old",1950,3,75,20.5,750,1600,-75,25,541,11.0502232142857,6.29341927884648,0.196636428183498,"BOUGHT","o",576.296181818182,1458.83072727273,549.138818181818,1645.32118181818,559.089272727273,1159.247,566.249363636364,1257.967,179.150657320628,180.887575367687,180.019116344158
"F1950","F","old",1950,3,76,21.5,900,1800,75,225,498,-31.9497767857143,6.21060007702465,0.11381722636167,"BAT","ae",576.296181818182,1458.83072727273,549.138818181818,1645.32118181818,559.089272727273,1159.247,566.249363636364,1257.967,179.150657320628,180.887575367687,180.019116344158
"F1950","F","old",1950,3,77,22.5,900,1200,75,-375,387,-142.949776785714,5.95842469302978,-0.138358157633201,"BUT","u",576.296181818182,1458.83072727273,549.138818181818,1645.32118181818,559.089272727273,1159.247,566.249363636364,1257.967,179.150657320628,180.887575367687,180.019116344158
"F1950","F","old",1950,3,78,23.5,750,1750,-75,175,981,451.050223214286,6.88857245956536,0.791789608902381,"BET","e",576.296181818182,1458.83072727273,549.138818181818,1645.32118181818,559.089272727273,1159.247,566.249363636364,1257.967,179.150657320628,180.887575367687,180.019116344158
"F1950","F","old",1950,3,79,24.5,700,1500,-125,-75,798,268.050223214286,6.68210859744981,0.585325746786826,"BOUGHT","o",576.296181818182,1458.83072727273,549.138818181818,1645.32118181818,559.089272727273,1159.247,566.249363636364,1257.967,179.150657320628,180.887575367687,180.019116344158
"F1950","F","old",1950,3,80,25.5,750,1250,-75,-325,552,22.0502232142857,6.31354804627709,0.216765195614112,"BUT","u",576.296181818182,1458.83072727273,549.138818181818,1645.32118181818,559.089272727273,1159.247,566.249363636364,1257.967,179.150657320628,180.887575367687,180.019116344158
"F1950","F","old",1950,3,81,26.5,750,1800,-75,225,387,-142.949776785714,5.95842469302978,-0.138358157633201,"BET","e",576.296181818182,1458.83072727273,549.138818181818,1645.32118181818,559.089272727273,1159.247,566.249363636364,1257.967,179.150657320628,180.887575367687,180.019116344158
"F1950","F","old",1950,3,82,27.5,950,1500,125,-75,326,-203.949776785714,5.78689738136671,-0.309885469296275,"BAT","ae",576.296181818182,1458.83072727273,549.138818181818,1645.32118181818,559.089272727273,1159.247,566.249363636364,1257.967,179.150657320628,180.887575367687,180.019116344158
"F1950","F","old",1950,3,83,28.5,900,1450,75,-125,231,-298.949776785714,5.44241771052179,-0.65436514014119,"BAT","ae",576.296181818182,1458.83072727273,549.138818181818,1645.32118181818,559.089272727273,1159.247,566.249363636364,1257.967,179.150657320628,180.887575367687,180.019116344158
"F1950","F","old",1950,3,84,29.5,850,1500,25,-75,204,-325.949776785714,5.31811999384422,-0.778662856818767,"BAT","ae",576.296181818182,1458.83072727273,549.138818181818,1645.32118181818,559.089272727273,1159.247,566.249363636364,1257.967,179.150657320628,180.887575367687,180.019116344158
"F1950","F","old",1950,3,85,30.5,850,1800,25,225,562,32.0502232142857,6.33150184989369,0.234718999230708,"BAT","ae",576.296181818182,1458.83072727273,549.138818181818,1645.32118181818,559.089272727273,1159.247,566.249363636364,1257.967,179.150657320628,180.887575367687,180.019116344158
"F1950","F","old",1950,3,86,31.5,950,1250,125,-325,641,111.050223214286,6.46302945692067,0.366246606257687,"BOUGHT","o",576.296181818182,1458.83072727273,549.138818181818,1645.32118181818,559.089272727273,1159.247,566.249363636364,1257.967,179.150657320628,180.887575367687,180.019116344158
"F1950","F","old",1950,3,87,32.5,900,1500,75,-75,433,-96.9497767857143,6.07073772800249,-0.0260451226604932,"BAT","ae",576.296181818182,1458.83072727273,549.138818181818,1645.32118181818,559.089272727273,1159.247,566.249363636364,1257.967,179.150657320628,180.887575367687,180.019116344158
"F1950","F","old",1950,3,88,33.5,850,1700,25,125,468,-61.9497767857143,6.14846829591765,0.0516854452546642,"BET","e",576.296181818182,1458.83072727273,549.138818181818,1645.32118181818,559.089272727273,1159.247,566.249363636364,1257.967,179.150657320628,180.887575367687,180.019116344158
"F1950","F","old",1950,3,89,34.5,700,1450,-125,-125,1195,665.050223214286,7.08590146436561,0.989118613702628,"BOUGHT","o",576.296181818182,1458.83072727273,549.138818181818,1645.32118181818,559.089272727273,1159.247,566.249363636364,1257.967,179.150657320628,180.887575367687,180.019116344158
"F1950","F","old",1950,3,90,35.5,850,1900,25,325,535,5.05022321428567,6.28226674689601,0.185483896233023,"BET","e",576.296181818182,1458.83072727273,549.138818181818,1645.32118181818,559.089272727273,1159.247,566.249363636364,1257.967,179.150657320628,180.887575367687,180.019116344158
"F1950","F","old",1950,3,91,36.5,800,1500,-25,-75,568,38.0502232142857,6.34212141872115,0.245338568058169,"BUT","u",576.296181818182,1458.83072727273,549.138818181818,1645.32118181818,559.089272727273,1159.247,566.249363636364,1257.967,179.150657320628,180.887575367687,180.019116344158
"F1950","F","old",1950,3,92,37.5,850,1450,25,-125,710,180.050223214286,6.56526497003536,0.468482119372378,"BUT","u",576.296181818182,1458.83072727273,549.138818181818,1645.32118181818,559.089272727273,1159.247,566.249363636364,1257.967,179.150657320628,180.887575367687,180.019116344158
"F1950","F","old",1950,3,93,38.5,700,1600,-125,25,729,199.050223214286,6.59167373200866,0.494890881345675,"BOUGHT","o",576.296181818182,1458.83072727273,549.138818181818,1645.32118181818,559.089272727273,1159.247,566.249363636364,1257.967,179.150657320628,180.887575367687,180.019116344158
"F1950","F","old",1950,3,94,39.5,750,1200,-75,-375,606,76.0502232142857,6.40687998606931,0.310097135406331,"BUT","u",576.296181818182,1458.83072727273,549.138818181818,1645.32118181818,559.089272727273,1159.247,566.249363636364,1257.967,179.150657320628,180.887575367687,180.019116344158
"F1950","F","old",1950,3,95,40.5,900,1350,75,-225,870,340.050223214286,6.76849321164863,0.671710360985647,"BAT","ae",576.296181818182,1458.83072727273,549.138818181818,1645.32118181818,559.089272727273,1159.247,566.249363636364,1257.967,179.150657320628,180.887575367687,180.019116344158
"F1950","F","old",1950,3,96,41.5,800,1250,-25,-325,416,-113.949776785714,6.03068526026126,-0.0660975904017196,"BUT","u",576.296181818182,1458.83072727273,549.138818181818,1645.32118181818,559.089272727273,1159.247,566.249363636364,1257.967,179.150657320628,180.887575367687,180.019116344158
"F1950","F","old",1950,3,97,42.5,750,1450,-75,-125,475,-54.9497767857143,6.16331480403464,0.0665319533716584,"BUT","u",576.296181818182,1458.83072727273,549.138818181818,1645.32118181818,559.089272727273,1159.247,566.249363636364,1257.967,179.150657320628,180.887575367687,180.019116344158
"F1950","F","old",1950,3,98,43.5,900,1850,75,275,558,28.0502232142857,6.32435896238131,0.227576111718328,"BAT","ae",576.296181818182,1458.83072727273,549.138818181818,1645.32118181818,559.089272727273,1159.247,566.249363636364,1257.967,179.150657320628,180.887575367687,180.019116344158
"F1950","F","old",1950,3,99,44.5,950,1400,125,-175,498,-31.9497767857143,6.21060007702465,0.11381722636167,"BAT","ae",576.296181818182,1458.83072727273,549.138818181818,1645.32118181818,559.089272727273,1159.247,566.249363636364,1257.967,179.150657320628,180.887575367687,180.019116344158
"F1950","F","old",1950,3,100,45.5,750,1400,-75,-175,621,91.0502232142857,6.43133108193348,0.334548231270496,"BUT","u",576.296181818182,1458.83072727273,549.138818181818,1645.32118181818,559.089272727273,1159.247,566.249363636364,1257.967,179.150657320628,180.887575367687,180.019116344158
"F1950","F","old",1950,3,101,46.5,850,1400,25,-175,290,-239.949776785714,5.66988092298052,-0.426901927682463,"BUT","u",576.296181818182,1458.83072727273,549.138818181818,1645.32118181818,559.089272727273,1159.247,566.249363636364,1257.967,179.150657320628,180.887575367687,180.019116344158
"F1950","F","old",1950,3,102,47.5,950,1550,125,-25,440,-89.9497767857143,6.08677472691231,-0.0100081237506764,"BAT","ae",576.296181818182,1458.83072727273,549.138818181818,1645.32118181818,559.089272727273,1159.247,566.249363636364,1257.967,179.150657320628,180.887575367687,180.019116344158
"F1952","F","old",1952,3,7,-47.5,900,1650,75,75,427,-102.949776785714,6.05678401322862,-0.0399988374343581,"BAT","ae",585.075909090909,1482.96436363636,509.577636363636,1609.33872727273,540.583545454545,1094.66390909091,568.759181818182,1303.95245454545,145.502053561787,173.687651817419,159.594852689603
"F1952","F","old",1952,3,8,-46.5,750,1850,-75,275,304,-225.949776785714,5.71702770140622,-0.379755149256761,"BET","e",585.075909090909,1482.96436363636,509.577636363636,1609.33872727273,540.583545454545,1094.66390909091,568.759181818182,1303.95245454545,145.502053561787,173.687651817419,159.594852689603
"F1952","F","old",1952,3,9,-45.5,800,1400,-25,-175,840,310.050223214286,6.73340189183736,0.636619041174376,"BUT","u",585.075909090909,1482.96436363636,509.577636363636,1609.33872727273,540.583545454545,1094.66390909091,568.759181818182,1303.95245454545,145.502053561787,173.687651817419,159.594852689603
"F1952","F","old",1952,3,10,-44.5,850,1850,25,275,564,34.0502232142857,6.33505425149806,0.238271400835076,"BAT","ae",585.075909090909,1482.96436363636,509.577636363636,1609.33872727273,540.583545454545,1094.66390909091,568.759181818182,1303.95245454545,145.502053561787,173.687651817419,159.594852689603
"F1952","F","old",1952,3,11,-43.5,800,1600,-25,25,826,296.050223214286,6.71659477352098,0.619811922857995,"BUT","u",585.075909090909,1482.96436363636,509.577636363636,1609.33872727273,540.583545454545,1094.66390909091,568.759181818182,1303.95245454545,145.502053561787,173.687651817419,159.594852689603
"F1952","F","old",1952,3,12,-42.5,800,1200,-25,-375,400,-129.949776785714,5.99146454710798,-0.105318303555001,"BOUGHT","o",585.075909090909,1482.96436363636,509.577636363636,1609.33872727273,540.583545454545,1094.66390909091,568.759181818182,1303.95245454545,145.502053561787,173.687651817419,159.594852689603
"F1952","F","old",1952,3,13,-41.5,750,1350,-75,-225,534,4.05022321428567,6.2803958389602,0.183612988297212,"BUT","u",585.075909090909,1482.96436363636,509.577636363636,1609.33872727273,540.583545454545,1094.66390909091,568.759181818182,1303.95245454545,145.502053561787,173.687651817419,159.594852689603
"F1952","F","old",1952,3,14,-40.5,950,1600,125,25,397,-132.949776785714,5.98393628068719,-0.112846569975792,"BAT","ae",585.075909090909,1482.96436363636,509.577636363636,1609.33872727273,540.583545454545,1094.66390909091,568.759181818182,1303.95245454545,145.502053561787,173.687651817419,159.594852689603
"F1952","F","old",1952,3,15,-39.5,900,1250,75,-325,613,83.0502232142857,6.41836493593621,0.321582085273229,"BOUGHT","o",585.075909090909,1482.96436363636,509.577636363636,1609.33872727273,540.583545454545,1094.66390909091,568.759181818182,1303.95245454545,145.502053561787,173.687651817419,159.594852689603
"F1952","F","old",1952,3,16,-38.5,950,1800,125,225,396,-133.949776785714,5.98141421125448,-0.115368639408502,"BAT","ae",585.075909090909,1482.96436363636,509.577636363636,1609.33872727273,540.583545454545,1094.66390909091,568.759181818182,1303.95245454545,145.502053561787,173.687651817419,159.594852689603
"F1952","F","old",1952,3,17,-37.5,800,1350,-25,-225,672,142.050223214286,6.51025834052315,0.413475489860167,"BUT","u",585.075909090909,1482.96436363636,509.577636363636,1609.33872727273,540.583545454545,1094.66390909091,568.759181818182,1303.95245454545,145.502053561787,173.687651817419,159.594852689603
"F1952","F","old",1952,3,18,-36.5,900,1900,75,325,548,18.0502232142857,6.30627528694802,0.209492436285033,"BAT","ae",585.075909090909,1482.96436363636,509.577636363636,1609.33872727273,540.583545454545,1094.66390909091,568.759181818182,1303.95245454545,145.502053561787,173.687651817419,159.594852689603
"F1952","F","old",1952,3,19,-35.5,700,1700,-125,125,395,-134.949776785714,5.97888576490112,-0.117897085761861,"BET","e",585.075909090909,1482.96436363636,509.577636363636,1609.33872727273,540.583545454545,1094.66390909091,568.759181818182,1303.95245454545,145.502053561787,173.687651817419,159.594852689603
"F1952","F","old",1952,3,20,-34.5,950,1650,125,75,500,-29.9497767857143,6.21460809842219,0.117825247759209,"BAT","ae",585.075909090909,1482.96436363636,509.577636363636,1609.33872727273,540.583545454545,1094.66390909091,568.759181818182,1303.95245454545,145.502053561787,173.687651817419,159.594852689603
"F1952","F","old",1952,3,21,-33.5,700,1950,-125,375,341,-188.949776785714,5.83188247728352,-0.264900373379466,"BET","e",585.075909090909,1482.96436363636,509.577636363636,1609.33872727273,540.583545454545,1094.66390909091,568.759181818182,1303.95245454545,145.502053561787,173.687651817419,159.594852689603
"F1952","F","old",1952,3,22,-32.5,800,1900,-25,325,222,-307.949776785714,5.40267738187228,-0.694105468790704,"BET","e",585.075909090909,1482.96436363636,509.577636363636,1609.33872727273,540.583545454545,1094.66390909091,568.759181818182,1303.95245454545,145.502053561787,173.687651817419,159.594852689603
"F1952","F","old",1952,3,23,-31.5,900,1550,75,-25,284,-245.949776785714,5.64897423816121,-0.447808612501777,"BAT","ae",585.075909090909,1482.96436363636,509.577636363636,1609.33872727273,540.583545454545,1094.66390909091,568.759181818182,1303.95245454545,145.502053561787,173.687651817419,159.594852689603
"F1952","F","old",1952,3,24,-30.5,900,1950,75,375,574,44.0502232142857,6.35262939631957,0.255846545656584,"BAT","ae",585.075909090909,1482.96436363636,509.577636363636,1609.33872727273,540.583545454545,1094.66390909091,568.759181818182,1303.95245454545,145.502053561787,173.687651817419,159.594852689603
"F1952","F","old",1952,3,25,-29.5,900,1300,75,-275,847,317.050223214286,6.74170069465205,0.644917843989072,"BUT","u",585.075909090909,1482.96436363636,509.577636363636,1609.33872727273,540.583545454545,1094.66390909091,568.759181818182,1303.95245454545,145.502053561787,173.687651817419,159.594852689603
"F1952","F","old",1952,3,26,-28.5,700,1800,-125,225,858,328.050223214286,6.75460409948796,0.657821248824979,"BET","e",585.075909090909,1482.96436363636,509.577636363636,1609.33872727273,540.583545454545,1094.66390909091,568.759181818182,1303.95245454545,145.502053561787,173.687651817419,159.594852689603
"F1952","F","old",1952,3,27,-27.5,700,1300,-125,-275,768,238.050223214286,6.64378973314767,0.547006882484689,"BOUGHT","o",585.075909090909,1482.96436363636,509.577636363636,1609.33872727273,540.583545454545,1094.66390909091,568.759181818182,1303.95245454545,145.502053561787,173.687651817419,159.594852689603
"F1952","F","old",1952,3,28,-26.5,850,1600,25,25,452,-77.9497767857143,6.11368217983223,0.0168993291692487,"BAT","ae",585.075909090909,1482.96436363636,509.577636363636,1609.33872727273,540.583545454545,1094.66390909091,568.759181818182,1303.95245454545,145.502053561787,173.687651817419,159.594852689603
"F1952","F","old",1952,3,29,-25.5,700,1850,-125,275,311,-218.949776785714,5.73979291217923,-0.356989938483749,"BET","e",585.075909090909,1482.96436363636,509.577636363636,1609.33872727273,540.583545454545,1094.66390909091,568.759181818182,1303.95245454545,145.502053561787,173.687651817419,159.594852689603
"F1952","F","old",1952,3,30,-24.5,950,1450,125,-125,930,400.050223214286,6.8351845861473,0.738401735484318,"BUT","u",585.075909090909,1482.96436363636,509.577636363636,1609.33872727273,540.583545454545,1094.66390909091,568.759181818182,1303.95245454545,145.502053561787,173.687651817419,159.594852689603
"F1952","F","old",1952,3,31,-23.5,750,1650,-75,75,380,-149.949776785714,5.94017125272043,-0.156611597942551,"BET","e",585.075909090909,1482.96436363636,509.577636363636,1609.33872727273,540.583545454545,1094.66390909091,568.759181818182,1303.95245454545,145.502053561787,173.687651817419,159.594852689603
"F1952","F","old",1952,3,32,-22.5,900,1400,75,-175,284,-245.949776785714,5.64897423816121,-0.447808612501777,"BAT","ae",585.075909090909,1482.96436363636,509.577636363636,1609.33872727273,540.583545454545,1094.66390909091,568.759181818182,1303.95245454545,145.502053561787,173.687651817419,159.594852689603
"F1952","F","old",1952,3,33,-21.5,800,1750,-25,175,496,-33.9497767857143,6.20657592672493,0.109793076061945,"BET","e",585.075909090909,1482.96436363636,509.577636363636,1609.33872727273,540.583545454545,1094.66390909091,568.759181818182,1303.95245454545,145.502053561787,173.687651817419,159.594852689603
"F1952","F","old",1952,3,34,-20.5,850,1950,25,375,535,5.05022321428567,6.28226674689601,0.185483896233023,"BAT","ae",585.075909090909,1482.96436363636,509.577636363636,1609.33872727273,540.583545454545,1094.66390909091,568.759181818182,1303.95245454545,145.502053561787,173.687651817419,159.594852689603
"F1952","F","old",1952,3,35,-19.5,950,1700,125,125,572,42.0502232142857,6.3491389913798,0.252356140716815,"BAT","ae",585.075909090909,1482.96436363636,509.577636363636,1609.33872727273,540.583545454545,1094.66390909091,568.759181818182,1303.95245454545,145.502053561787,173.687651817419,159.594852689603
"F1952","F","old",1952,3,36,-18.5,800,1450,-25,-125,451,-78.9497767857143,6.11146733950268,0.0146844888396958,"BUT","u",585.075909090909,1482.96436363636,509.577636363636,1609.33872727273,540.583545454545,1094.66390909091,568.759181818182,1303.95245454545,145.502053561787,173.687651817419,159.594852689603
"F1952","F","old",1952,3,37,-17.5,950,1200,125,-375,364,-165.949776785714,5.89715386763674,-0.199628983026242,"BOUGHT","o",585.075909090909,1482.96436363636,509.577636363636,1609.33872727273,540.583545454545,1094.66390909091,568.759181818182,1303.95245454545,145.502053561787,173.687651817419,159.594852689603
"F1952","F","old",1952,3,38,-16.5,750,1700,-75,125,621,91.0502232142857,6.43133108193348,0.334548231270496,"BET","e",585.075909090909,1482.96436363636,509.577636363636,1609.33872727273,540.583545454545,1094.66390909091,568.759181818182,1303.95245454545,145.502053561787,173.687651817419,159.594852689603
"F1952","F","old",1952,3,39,-15.5,850,1350,25,-225,682,152.050223214286,6.52502965784346,0.428246807180479,"BUT","u",585.075909090909,1482.96436363636,509.577636363636,1609.33872727273,540.583545454545,1094.66390909091,568.759181818182,1303.95245454545,145.502053561787,173.687651817419,159.594852689603
"F1952","F","old",1952,3,40,-14.5,700,1550,-125,-25,356,-173.949776785714,5.87493073085203,-0.221852119810952,"BET","e",585.075909090909,1482.96436363636,509.577636363636,1609.33872727273,540.583545454545,1094.66390909091,568.759181818182,1303.95245454545,145.502053561787,173.687651817419,159.594852689603
"F1952","F","old",1952,3,41,-13.5,850,1200,25,-375,573,43.0502232142857,6.35088571671474,0.254102866051757,"BOUGHT","o",585.075909090909,1482.96436363636,509.577636363636,1609.33872727273,540.583545454545,1094.66390909091,568.759181818182,1303.95245454545,145.502053561787,173.687651817419,159.594852689603
"F1952","F","old",1952,3,42,-12.5,800,1850,-25,275,660,130.050223214286,6.49223983502047,0.395456984357488,"BET","e",585.075909090909,1482.96436363636,509.577636363636,1609.33872727273,540.583545454545,1094.66390909091,568.759181818182,1303.95245454545,145.502053561787,173.687651817419,159.594852689603
"F1952","F","old",1952,3,43,-11.5,950,1300,125,-275,569,39.0502232142857,6.34388043412633,0.247097583463348,"BUT","u",585.075909090909,1482.96436363636,509.577636363636,1609.33872727273,540.583545454545,1094.66390909091,568.759181818182,1303.95245454545,145.502053561787,173.687651817419,159.594852689603
"F1952","F","old",1952,3,44,-10.5,950,1950,125,375,342,-187.949776785714,5.8348107370626,-0.261972113600378,"BAT","ae",585.075909090909,1482.96436363636,509.577636363636,1609.33872727273,540.583545454545,1094.66390909091,568.759181818182,1303.95245454545,145.502053561787,173.687651817419,159.594852689603
"F1952","F","old",1952,3,45,-9.5,750,1900,-75,325,533,3.05022321428567,6.27852142416584,0.181738573502861,"BET","e",585.075909090909,1482.96436363636,509.577636363636,1609.33872727273,540.583545454545,1094.66390909091,568.759181818182,1303.95245454545,145.502053561787,173.687651817419,159.594852689603
"F1952","F","old",1952,3,46,-8.5,700,1750,-125,175,1169,639.050223214286,7.06390396147207,0.967121110809085,"BET","e",585.075909090909,1482.96436363636,509.577636363636,1609.33872727273,540.583545454545,1094.66390909091,568.759181818182,1303.95245454545,145.502053561787,173.687651817419,159.594852689603
"F1952","F","old",1952,3,47,-7.5,850,1300,25,-275,555,25.0502232142857,6.31896811374643,0.222185263083452,"BOUGHT","o",585.075909090909,1482.96436363636,509.577636363636,1609.33872727273,540.583545454545,1094.66390909091,568.759181818182,1303.95245454545,145.502053561787,173.687651817419,159.594852689603
"F1952","F","old",1952,3,48,-6.5,950,1850,125,275,326,-203.949776785714,5.78689738136671,-0.309885469296275,"BAT","ae",585.075909090909,1482.96436363636,509.577636363636,1609.33872727273,540.583545454545,1094.66390909091,568.759181818182,1303.95245454545,145.502053561787,173.687651817419,159.594852689603
"F1952","F","old",1952,3,49,-5.5,800,1550,-25,-25,441,-88.9497767857143,6.08904487544685,-0.00773797521613684,"BUT","u",585.075909090909,1482.96436363636,509.577636363636,1609.33872727273,540.583545454545,1094.66390909091,568.759181818182,1303.95245454545,145.502053561787,173.687651817419,159.594852689603
"F1952","F","old",1952,3,50,-4.5,750,1550,-75,-25,1403,873.050223214286,7.24636808010246,1.14958522943948,"BUT","u",585.075909090909,1482.96436363636,509.577636363636,1609.33872727273,540.583545454545,1094.66390909091,568.759181818182,1303.95245454545,145.502053561787,173.687651817419,159.594852689603
"F1952","F","old",1952,3,51,-3.5,900,1750,75,175,502,-27.9497767857143,6.21860011969173,0.121817269028746,"BAT","ae",585.075909090909,1482.96436363636,509.577636363636,1609.33872727273,540.583545454545,1094.66390909091,568.759181818182,1303.95245454545,145.502053561787,173.687651817419,159.594852689603
"F1952","F","old",1952,3,52,-2.5,950,1900,125,325,249,-280.949776785714,5.51745289646471,-0.579329954198275,"BAT","ae",585.075909090909,1482.96436363636,509.577636363636,1609.33872727273,540.583545454545,1094.66390909091,568.759181818182,1303.95245454545,145.502053561787,173.687651817419,159.594852689603
"F1952","F","old",1952,3,53,-1.5,950,1350,125,-225,477,-52.9497767857143,6.16751649088834,0.0707336402253587,"BOUGHT","o",585.075909090909,1482.96436363636,509.577636363636,1609.33872727273,540.583545454545,1094.66390909091,568.759181818182,1303.95245454545,145.502053561787,173.687651817419,159.594852689603
"F1952","F","old",1952,3,54,-0.5,800,1650,-25,75,751,221.050223214286,6.62140565176413,0.524622801101152,"BAT","ae",585.075909090909,1482.96436363636,509.577636363636,1609.33872727273,540.583545454545,1094.66390909091,568.759181818182,1303.95245454545,145.502053561787,173.687651817419,159.594852689603
"F1952","F","old",1952,3,55,0.5,800,1300,-25,-275,411,-118.949776785714,6.01859321449623,-0.0781896361667487,"BOUGHT","o",585.075909090909,1482.96436363636,509.577636363636,1609.33872727273,540.583545454545,1094.66390909091,568.759181818182,1303.95245454545,145.502053561787,173.687651817419,159.594852689603
"F1952","F","old",1952,3,56,1.5,800,1800,-25,225,437,-92.9497767857143,6.07993319509559,-0.0168496555673929,"BAT","ae",585.075909090909,1482.96436363636,509.577636363636,1609.33872727273,540.583545454545,1094.66390909091,568.759181818182,1303.95245454545,145.502053561787,173.687651817419,159.594852689603
"F1952","F","old",1952,3,57,2.5,700,1650,-125,75,1452,922.050223214286,7.28069719538474,1.18391434472176,"BET","e",585.075909090909,1482.96436363636,509.577636363636,1609.33872727273,540.583545454545,1094.66390909091,568.759181818182,1303.95245454545,145.502053561787,173.687651817419,159.594852689603
"F1952","F","old",1952,3,58,3.5,800,1950,-25,375,789,259.050223214286,6.67076632084587,0.573983470182891,"BAT","ae",585.075909090909,1482.96436363636,509.577636363636,1609.33872727273,540.583545454545,1094.66390909091,568.759181818182,1303.95245454545,145.502053561787,173.687651817419,159.594852689603
"F1952","F","old",1952,3,59,4.5,850,1650,25,75,282,-247.949776785714,5.64190707093811,-0.454875779724869,"BAT","ae",585.075909090909,1482.96436363636,509.577636363636,1609.33872727273,540.583545454545,1094.66390909091,568.759181818182,1303.95245454545,145.502053561787,173.687651817419,159.594852689603
"F1952","F","old",1952,3,60,5.5,700,1350,-125,-225,517,-12.9497767857143,6.24804287450843,0.151260023845446,"BUT","u",585.075909090909,1482.96436363636,509.577636363636,1609.33872727273,540.583545454545,1094.66390909091,568.759181818182,1303.95245454545,145.502053561787,173.687651817419,159.594852689603
"F1952","F","old",1952,3,61,6.5,900,1600,75,25,421,-108.949776785714,6.04263283368238,-0.0541500169806017,"BAT","ae",585.075909090909,1482.96436363636,509.577636363636,1609.33872727273,540.583545454545,1094.66390909091,568.759181818182,1303.95245454545,145.502053561787,173.687651817419,159.594852689603
"F1952","F","old",1952,3,62,7.5,850,1250,25,-325,522,-7.94977678571433,6.25766758788264,0.160884737219656,"BOUGHT","o",585.075909090909,1482.96436363636,509.577636363636,1609.33872727273,540.583545454545,1094.66390909091,568.759181818182,1303.95245454545,145.502053561787,173.687651817419,159.594852689603
"F1952","F","old",1952,3,63,8.5,700,1200,-125,-375,892,362.050223214286,6.79346613258001,0.696683281917027,"BUT","u",585.075909090909,1482.96436363636,509.577636363636,1609.33872727273,540.583545454545,1094.66390909091,568.759181818182,1303.95245454545,145.502053561787,173.687651817419,159.594852689603
"F1952","F","old",1952,3,64,9.5,750,1300,-75,-275,702,172.050223214286,6.55393340402581,0.457150553362828,"BUT","u",585.075909090909,1482.96436363636,509.577636363636,1609.33872727273,540.583545454545,1094.66390909091,568.759181818182,1303.95245454545,145.502053561787,173.687651817419,159.594852689603
"F1952","F","old",1952,3,65,10.5,750,1500,-75,-75,988,458.050223214286,6.89568269774787,0.798899847084885,"BUT","u",585.075909090909,1482.96436363636,509.577636363636,1609.33872727273,540.583545454545,1094.66390909091,568.759181818182,1303.95245454545,145.502053561787,173.687651817419,159.594852689603
"F1952","F","old",1952,3,66,11.5,950,1750,125,175,331,-198.949776785714,5.80211837537706,-0.29466447528592,"BAT","ae",585.075909090909,1482.96436363636,509.577636363636,1609.33872727273,540.583545454545,1094.66390909091,568.759181818182,1303.95245454545,145.502053561787,173.687651817419,159.594852689603
"F1952","F","old",1952,3,67,12.5,900,1700,75,125,205,-324.949776785714,5.32300997913841,-0.773772871524574,"BAT","ae",585.075909090909,1482.96436363636,509.577636363636,1609.33872727273,540.583545454545,1094.66390909091,568.759181818182,1303.95245454545,145.502053561787,173.687651817419,159.594852689603
"F1952","F","old",1952,3,68,13.5,850,1750,25,175,196,-333.949776785714,5.27811465923052,-0.818668191432466,"BAT","ae",585.075909090909,1482.96436363636,509.577636363636,1609.33872727273,540.583545454545,1094.66390909091,568.759181818182,1303.95245454545,145.502053561787,173.687651817419,159.594852689603
"F1952","F","old",1952,3,69,14.5,700,1250,-125,-325,444,-85.9497767857143,6.09582456243222,-0.000958288230758164,"BOUGHT","o",585.075909090909,1482.96436363636,509.577636363636,1609.33872727273,540.583545454545,1094.66390909091,568.759181818182,1303.95245454545,145.502053561787,173.687651817419,159.594852689603
"F1952","F","old",1952,3,70,15.5,700,1900,-125,325,415,-114.949776785714,6.0282785202307,-0.068504330432285,"BET","e",585.075909090909,1482.96436363636,509.577636363636,1609.33872727273,540.583545454545,1094.66390909091,568.759181818182,1303.95245454545,145.502053561787,173.687651817419,159.594852689603
"F1952","F","old",1952,3,71,16.5,850,1550,25,-25,732,202.050223214286,6.59578051396131,0.498997663298328,"BAT","ae",585.075909090909,1482.96436363636,509.577636363636,1609.33872727273,540.583545454545,1094.66390909091,568.759181818182,1303.95245454545,145.502053561787,173.687651817419,159.594852689603
"F1952","F","old",1952,3,72,17.5,750,1950,-75,375,466,-63.9497767857143,6.14418563412565,0.0474027834626627,"BET","e",585.075909090909,1482.96436363636,509.577636363636,1609.33872727273,540.583545454545,1094.66390909091,568.759181818182,1303.95245454545,145.502053561787,173.687651817419,159.594852689603
"F1952","F","old",1952,3,73,18.5,700,1400,-125,-175,560,30.0502232142857,6.32793678372919,0.231153933066212,"BUT","u",585.075909090909,1482.96436363636,509.577636363636,1609.33872727273,540.583545454545,1094.66390909091,568.759181818182,1303.95245454545,145.502053561787,173.687651817419,159.594852689603
"F1952","F","old",1952,3,74,19.5,800,1700,-25,125,380,-149.949776785714,5.94017125272043,-0.156611597942551,"BAT","ae",585.075909090909,1482.96436363636,509.577636363636,1609.33872727273,540.583545454545,1094.66390909091,568.759181818182,1303.95245454545,145.502053561787,173.687651817419,159.594852689603
"F1952","F","old",1952,3,75,20.5,750,1600,-75,25,899,369.050223214286,6.80128303447162,0.704500183808637,"BUT","u",585.075909090909,1482.96436363636,509.577636363636,1609.33872727273,540.583545454545,1094.66390909091,568.759181818182,1303.95245454545,145.502053561787,173.687651817419,159.594852689603
"F1952","F","old",1952,3,76,21.5,900,1800,75,225,307,-222.949776785714,5.7268477475872,-0.369935103075786,"BAT","ae",585.075909090909,1482.96436363636,509.577636363636,1609.33872727273,540.583545454545,1094.66390909091,568.759181818182,1303.95245454545,145.502053561787,173.687651817419,159.594852689603
"F1952","F","old",1952,3,77,22.5,900,1200,75,-375,340,-189.949776785714,5.82894561761021,-0.267837233052775,"BOUGHT","o",585.075909090909,1482.96436363636,509.577636363636,1609.33872727273,540.583545454545,1094.66390909091,568.759181818182,1303.95245454545,145.502053561787,173.687651817419,159.594852689603
"F1952","F","old",1952,3,78,23.5,750,1750,-75,175,911,381.050223214286,6.81454289725996,0.717760046596975,"BET","e",585.075909090909,1482.96436363636,509.577636363636,1609.33872727273,540.583545454545,1094.66390909091,568.759181818182,1303.95245454545,145.502053561787,173.687651817419,159.594852689603
"F1952","F","old",1952,3,79,24.5,700,1500,-125,-75,273,-256.949776785714,5.60947179518496,-0.487311055478023,"BET","e",585.075909090909,1482.96436363636,509.577636363636,1609.33872727273,540.583545454545,1094.66390909091,568.759181818182,1303.95245454545,145.502053561787,173.687651817419,159.594852689603
"F1952","F","old",1952,3,80,25.5,750,1250,-75,-325,525,-4.94977678571433,6.26339826259162,0.166615411928641,"BOUGHT","o",585.075909090909,1482.96436363636,509.577636363636,1609.33872727273,540.583545454545,1094.66390909091,568.759181818182,1303.95245454545,145.502053561787,173.687651817419,159.594852689603
"F1952","F","old",1952,3,81,26.5,750,1800,-75,225,466,-63.9497767857143,6.14418563412565,0.0474027834626627,"BAT","ae",585.075909090909,1482.96436363636,509.577636363636,1609.33872727273,540.583545454545,1094.66390909091,568.759181818182,1303.95245454545,145.502053561787,173.687651817419,159.594852689603
"F1952","F","old",1952,3,82,27.5,950,1500,125,-75,1174,644.050223214286,7.06817200038804,0.971389149725059,"BAT","ae",585.075909090909,1482.96436363636,509.577636363636,1609.33872727273,540.583545454545,1094.66390909091,568.759181818182,1303.95245454545,145.502053561787,173.687651817419,159.594852689603
"F1952","F","old",1952,3,83,28.5,900,1450,75,-125,256,-273.949776785714,5.54517744447956,-0.551605406183421,"BAT","ae",585.075909090909,1482.96436363636,509.577636363636,1609.33872727273,540.583545454545,1094.66390909091,568.759181818182,1303.95245454545,145.502053561787,173.687651817419,159.594852689603
"F1952","F","old",1952,3,84,29.5,850,1500,25,-75,185,-344.949776785714,5.22035582507832,-0.876427025584658,"BAT","ae",585.075909090909,1482.96436363636,509.577636363636,1609.33872727273,540.583545454545,1094.66390909091,568.759181818182,1303.95245454545,145.502053561787,173.687651817419,159.594852689603
"F1952","F","old",1952,3,85,30.5,850,1800,25,225,1571,1041.05022321429,7.35946763825562,1.26268478759264,"BAT","ae",585.075909090909,1482.96436363636,509.577636363636,1609.33872727273,540.583545454545,1094.66390909091,568.759181818182,1303.95245454545,145.502053561787,173.687651817419,159.594852689603
"F1952","F","old",1952,3,86,31.5,950,1250,125,-325,593,63.0502232142857,6.38519439899773,0.288411548334743,"BOUGHT","o",585.075909090909,1482.96436363636,509.577636363636,1609.33872727273,540.583545454545,1094.66390909091,568.759181818182,1303.95245454545,145.502053561787,173.687651817419,159.594852689603
"F1952","F","old",1952,3,87,32.5,900,1500,75,-75,1237,707.050223214286,7.12044437239249,1.0236615217295,"BAT","ae",585.075909090909,1482.96436363636,509.577636363636,1609.33872727273,540.583545454545,1094.66390909091,568.759181818182,1303.95245454545,145.502053561787,173.687651817419,159.594852689603
"F1952","F","old",1952,3,88,33.5,850,1700,25,125,292,-237.949776785714,5.67675380226828,-0.420029048394701,"BAT","ae",585.075909090909,1482.96436363636,509.577636363636,1609.33872727273,540.583545454545,1094.66390909091,568.759181818182,1303.95245454545,145.502053561787,173.687651817419,159.594852689603
"F1952","F","old",1952,3,89,34.5,700,1450,-125,-125,1222,692.050223214286,7.10824413973154,1.01146128906856,"BUT","u",585.075909090909,1482.96436363636,509.577636363636,1609.33872727273,540.583545454545,1094.66390909091,568.759181818182,1303.95245454545,145.502053561787,173.687651817419,159.594852689603
"F1952","F","old",1952,3,90,35.5,850,1900,25,325,928,398.050223214286,6.8330317327862,0.736248882123218,"BAT","ae",585.075909090909,1482.96436363636,509.577636363636,1609.33872727273,540.583545454545,1094.66390909091,568.759181818182,1303.95245454545,145.502053561787,173.687651817419,159.594852689603
"F1952","F","old",1952,3,91,36.5,800,1500,-25,-75,560,30.0502232142857,6.32793678372919,0.231153933066212,"BAT","ae",585.075909090909,1482.96436363636,509.577636363636,1609.33872727273,540.583545454545,1094.66390909091,568.759181818182,1303.95245454545,145.502053561787,173.687651817419,159.594852689603
"F1952","F","old",1952,3,92,37.5,850,1450,25,-125,1537,1007.05022321429,7.3375877435386,1.24080489287561,"BOUGHT","o",585.075909090909,1482.96436363636,509.577636363636,1609.33872727273,540.583545454545,1094.66390909091,568.759181818182,1303.95245454545,145.502053561787,173.687651817419,159.594852689603
"F1952","F","old",1952,3,93,38.5,700,1600,-125,25,1366,836.050223214286,7.21964204013074,1.12285918946775,"BET","e",585.075909090909,1482.96436363636,509.577636363636,1609.33872727273,540.583545454545,1094.66390909091,568.759181818182,1303.95245454545,145.502053561787,173.687651817419,159.594852689603
"F1952","F","old",1952,3,94,39.5,750,1200,-75,-375,443,-86.9497767857143,6.09356977004514,-0.0032130806178472,"BOUGHT","o",585.075909090909,1482.96436363636,509.577636363636,1609.33872727273,540.583545454545,1094.66390909091,568.759181818182,1303.95245454545,145.502053561787,173.687651817419,159.594852689603
"F1952","F","old",1952,3,95,40.5,900,1350,75,-225,466,-63.9497767857143,6.14418563412565,0.0474027834626627,"BAT","ae",585.075909090909,1482.96436363636,509.577636363636,1609.33872727273,540.583545454545,1094.66390909091,568.759181818182,1303.95245454545,145.502053561787,173.687651817419,159.594852689603
"F1952","F","old",1952,3,96,41.5,800,1250,-25,-325,223,-306.949776785714,5.40717177146012,-0.689611079202864,"BAT","ae",585.075909090909,1482.96436363636,509.577636363636,1609.33872727273,540.583545454545,1094.66390909091,568.759181818182,1303.95245454545,145.502053561787,173.687651817419,159.594852689603
"F1952","F","old",1952,3,97,42.5,750,1450,-75,-125,589,59.0502232142857,6.37842618365159,0.281643332988604,"BUT","u",585.075909090909,1482.96436363636,509.577636363636,1609.33872727273,540.583545454545,1094.66390909091,568.759181818182,1303.95245454545,145.502053561787,173.687651817419,159.594852689603
"F1952","F","old",1952,3,98,43.5,900,1850,75,275,342,-187.949776785714,5.8348107370626,-0.261972113600378,"BAT","ae",585.075909090909,1482.96436363636,509.577636363636,1609.33872727273,540.583545454545,1094.66390909091,568.759181818182,1303.95245454545,145.502053561787,173.687651817419,159.594852689603
"F1952","F","old",1952,3,99,44.5,950,1400,125,-175,1084,554.050223214286,6.98841318199959,0.891630331336609,"BAT","ae",585.075909090909,1482.96436363636,509.577636363636,1609.33872727273,540.583545454545,1094.66390909091,568.759181818182,1303.95245454545,145.502053561787,173.687651817419,159.594852689603
"F1952","F","old",1952,3,100,45.5,750,1400,-75,-175,409,-120.949776785714,6.0137151560428,-0.0830676946201807,"BUT","u",585.075909090909,1482.96436363636,509.577636363636,1609.33872727273,540.583545454545,1094.66390909091,568.759181818182,1303.95245454545,145.502053561787,173.687651817419,159.594852689603
"F1952","F","old",1952,3,101,46.5,850,1400,25,-175,394,-135.949776785714,5.97635090929793,-0.120431941365049,"BAT","ae",585.075909090909,1482.96436363636,509.577636363636,1609.33872727273,540.583545454545,1094.66390909091,568.759181818182,1303.95245454545,145.502053561787,173.687651817419,159.594852689603
"F1952","F","old",1952,3,102,47.5,950,1550,125,-25,311,-218.949776785714,5.73979291217923,-0.356989938483749,"BAT","ae",585.075909090909,1482.96436363636,509.577636363636,1609.33872727273,540.583545454545,1094.66390909091,568.759181818182,1303.95245454545,145.502053561787,173.687651817419,159.594852689603
"F1957","F","old",1957,3,7,-47.5,900,1650,75,75,620,90.0502232142857,6.42971947803914,0.332936627376155,"BAT","ae",613.997181818182,1494.61872727273,526.399545454545,1590.30363636364,537.665090909091,1123.89609090909,568.470545454545,1238.22790909091,119.686493125065,160.362901377982,140.024697251524
"F1957","F","old",1957,3,8,-46.5,750,1850,-75,275,383,-146.949776785714,5.94803498918065,-0.148747861482337,"BET","e",613.997181818182,1494.61872727273,526.399545454545,1590.30363636364,537.665090909091,1123.89609090909,568.470545454545,1238.22790909091,119.686493125065,160.362901377982,140.024697251524
"F1957","F","old",1957,3,9,-45.5,800,1400,-25,-175,311,-218.949776785714,5.73979291217923,-0.356989938483749,"BUT","u",613.997181818182,1494.61872727273,526.399545454545,1590.30363636364,537.665090909091,1123.89609090909,568.470545454545,1238.22790909091,119.686493125065,160.362901377982,140.024697251524
"F1957","F","old",1957,3,10,-44.5,850,1850,25,275,324,-205.949776785714,5.78074351579233,-0.316039334870654,"BET","e",613.997181818182,1494.61872727273,526.399545454545,1590.30363636364,537.665090909091,1123.89609090909,568.470545454545,1238.22790909091,119.686493125065,160.362901377982,140.024697251524
"F1957","F","old",1957,3,11,-43.5,800,1600,-25,25,383,-146.949776785714,5.94803498918065,-0.148747861482337,"BUT","u",613.997181818182,1494.61872727273,526.399545454545,1590.30363636364,537.665090909091,1123.89609090909,568.470545454545,1238.22790909091,119.686493125065,160.362901377982,140.024697251524
"F1957","F","old",1957,3,12,-42.5,800,1200,-25,-375,291,-238.949776785714,5.67332326717149,-0.42345958349149,"BOUGHT","o",613.997181818182,1494.61872727273,526.399545454545,1590.30363636364,537.665090909091,1123.89609090909,568.470545454545,1238.22790909091,119.686493125065,160.362901377982,140.024697251524
"F1957","F","old",1957,3,13,-41.5,750,1350,-75,-225,348,-181.949776785714,5.85220247977447,-0.244580370888508,"BUT","u",613.997181818182,1494.61872727273,526.399545454545,1590.30363636364,537.665090909091,1123.89609090909,568.470545454545,1238.22790909091,119.686493125065,160.362901377982,140.024697251524
"F1957","F","old",1957,3,14,-40.5,950,1600,125,25,308,-221.949776785714,5.73009978297357,-0.366683067689409,"BAT","ae",613.997181818182,1494.61872727273,526.399545454545,1590.30363636364,537.665090909091,1123.89609090909,568.470545454545,1238.22790909091,119.686493125065,160.362901377982,140.024697251524
"F1957","F","old",1957,3,15,-39.5,900,1250,75,-325,370,-159.949776785714,5.91350300563827,-0.183279845024713,"BUT","u",613.997181818182,1494.61872727273,526.399545454545,1590.30363636364,537.665090909091,1123.89609090909,568.470545454545,1238.22790909091,119.686493125065,160.362901377982,140.024697251524
"F1957","F","old",1957,3,16,-38.5,950,1800,125,225,386,-143.949776785714,5.95583736946483,-0.140945481198152,"BAT","ae",613.997181818182,1494.61872727273,526.399545454545,1590.30363636364,537.665090909091,1123.89609090909,568.470545454545,1238.22790909091,119.686493125065,160.362901377982,140.024697251524
"F1957","F","old",1957,3,17,-37.5,800,1350,-25,-225,312,-217.949776785714,5.74300318780948,-0.3537796628535,"BUT","u",613.997181818182,1494.61872727273,526.399545454545,1590.30363636364,537.665090909091,1123.89609090909,568.470545454545,1238.22790909091,119.686493125065,160.362901377982,140.024697251524
"F1957","F","old",1957,3,18,-36.5,900,1900,75,325,677,147.050223214286,6.51767127291227,0.420888422249292,"BET","e",613.997181818182,1494.61872727273,526.399545454545,1590.30363636364,537.665090909091,1123.89609090909,568.470545454545,1238.22790909091,119.686493125065,160.362901377982,140.024697251524
"F1957","F","old",1957,3,19,-35.5,700,1700,-125,125,579,49.0502232142857,6.361302477573,0.264519626910013,"BUT","u",613.997181818182,1494.61872727273,526.399545454545,1590.30363636364,537.665090909091,1123.89609090909,568.470545454545,1238.22790909091,119.686493125065,160.362901377982,140.024697251524
"F1957","F","old",1957,3,20,-34.5,950,1650,125,75,443,-86.9497767857143,6.09356977004514,-0.0032130806178472,"BAT","ae",613.997181818182,1494.61872727273,526.399545454545,1590.30363636364,537.665090909091,1123.89609090909,568.470545454545,1238.22790909091,119.686493125065,160.362901377982,140.024697251524
"F1957","F","old",1957,3,21,-33.5,700,1950,-125,375,362,-167.949776785714,5.89164421182577,-0.205138638837211,"BET","e",613.997181818182,1494.61872727273,526.399545454545,1590.30363636364,537.665090909091,1123.89609090909,568.470545454545,1238.22790909091,119.686493125065,160.362901377982,140.024697251524
"F1957","F","old",1957,3,22,-32.5,800,1900,-25,325,305,-224.949776785714,5.72031177660741,-0.376471074055571,"BET","e",613.997181818182,1494.61872727273,526.399545454545,1590.30363636364,537.665090909091,1123.89609090909,568.470545454545,1238.22790909091,119.686493125065,160.362901377982,140.024697251524
"F1957","F","old",1957,3,23,-31.5,900,1550,75,-25,335,-194.949776785714,5.81413053182507,-0.282652318837917,"BAT","ae",613.997181818182,1494.61872727273,526.399545454545,1590.30363636364,537.665090909091,1123.89609090909,568.470545454545,1238.22790909091,119.686493125065,160.362901377982,140.024697251524
"F1957","F","old",1957,3,24,-30.5,900,1950,75,375,560,30.0502232142857,6.32793678372919,0.231153933066212,"BET","e",613.997181818182,1494.61872727273,526.399545454545,1590.30363636364,537.665090909091,1123.89609090909,568.470545454545,1238.22790909091,119.686493125065,160.362901377982,140.024697251524
"F1957","F","old",1957,3,25,-29.5,900,1300,75,-275,385,-144.949776785714,5.95324333428778,-0.143539516375198,"BUT","u",613.997181818182,1494.61872727273,526.399545454545,1590.30363636364,537.665090909091,1123.89609090909,568.470545454545,1238.22790909091,119.686493125065,160.362901377982,140.024697251524
"F1957","F","old",1957,3,26,-28.5,700,1800,-125,225,1224,694.050223214286,7.10987946307227,1.01309661240929,"BOUGHT","o",613.997181818182,1494.61872727273,526.399545454545,1590.30363636364,537.665090909091,1123.89609090909,568.470545454545,1238.22790909091,119.686493125065,160.362901377982,140.024697251524
"F1957","F","old",1957,3,27,-27.5,700,1300,-125,-275,389,-140.949776785714,5.96357934361845,-0.133203507044537,"BUT","u",613.997181818182,1494.61872727273,526.399545454545,1590.30363636364,537.665090909091,1123.89609090909,568.470545454545,1238.22790909091,119.686493125065,160.362901377982,140.024697251524
"F1957","F","old",1957,3,28,-26.5,850,1600,25,25,353,-176.949776785714,5.8664680569333,-0.230314793729686,"BAT","ae",613.997181818182,1494.61872727273,526.399545454545,1590.30363636364,537.665090909091,1123.89609090909,568.470545454545,1238.22790909091,119.686493125065,160.362901377982,140.024697251524
"F1957","F","old",1957,3,29,-25.5,700,1850,-125,275,326,-203.949776785714,5.78689738136671,-0.309885469296275,"BET","e",613.997181818182,1494.61872727273,526.399545454545,1590.30363636364,537.665090909091,1123.89609090909,568.470545454545,1238.22790909091,119.686493125065,160.362901377982,140.024697251524
"F1957","F","old",1957,3,30,-24.5,950,1450,125,-125,374,-155.949776785714,5.92425579741453,-0.172527053248451,"BAT","ae",613.997181818182,1494.61872727273,526.399545454545,1590.30363636364,537.665090909091,1123.89609090909,568.470545454545,1238.22790909091,119.686493125065,160.362901377982,140.024697251524
"F1957","F","old",1957,3,31,-23.5,750,1650,-75,75,715,185.050223214286,6.57228254269401,0.475499692031025,"BUT","u",613.997181818182,1494.61872727273,526.399545454545,1590.30363636364,537.665090909091,1123.89609090909,568.470545454545,1238.22790909091,119.686493125065,160.362901377982,140.024697251524
"F1957","F","old",1957,3,32,-22.5,900,1400,75,-175,321,-208.949776785714,5.77144112313002,-0.325341727532967,"BAT","ae",613.997181818182,1494.61872727273,526.399545454545,1590.30363636364,537.665090909091,1123.89609090909,568.470545454545,1238.22790909091,119.686493125065,160.362901377982,140.024697251524
"F1957","F","old",1957,3,33,-21.5,800,1750,-25,175,301,-228.949776785714,5.70711026474888,-0.389672585914107,"BET","e",613.997181818182,1494.61872727273,526.399545454545,1590.30363636364,537.665090909091,1123.89609090909,568.470545454545,1238.22790909091,119.686493125065,160.362901377982,140.024697251524
"F1957","F","old",1957,3,34,-20.5,850,1950,25,375,416,-113.949776785714,6.03068526026126,-0.0660975904017196,"BET","e",613.997181818182,1494.61872727273,526.399545454545,1590.30363636364,537.665090909091,1123.89609090909,568.470545454545,1238.22790909091,119.686493125065,160.362901377982,140.024697251524
"F1957","F","old",1957,3,35,-19.5,950,1700,125,125,288,-241.949776785714,5.66296048013595,-0.433822370527037,"BAT","ae",613.997181818182,1494.61872727273,526.399545454545,1590.30363636364,537.665090909091,1123.89609090909,568.470545454545,1238.22790909091,119.686493125065,160.362901377982,140.024697251524
"F1957","F","old",1957,3,36,-18.5,800,1450,-25,-125,270,-259.949776785714,5.59842195899838,-0.498360891664608,"BUT","u",613.997181818182,1494.61872727273,526.399545454545,1590.30363636364,537.665090909091,1123.89609090909,568.470545454545,1238.22790909091,119.686493125065,160.362901377982,140.024697251524
"F1957","F","old",1957,3,37,-17.5,950,1200,125,-375,655,125.050223214286,6.48463523563525,0.387852384972269,"BOUGHT","o",613.997181818182,1494.61872727273,526.399545454545,1590.30363636364,537.665090909091,1123.89609090909,568.470545454545,1238.22790909091,119.686493125065,160.362901377982,140.024697251524
"F1957","F","old",1957,3,38,-16.5,750,1700,-75,125,906,376.050223214286,6.80903930604298,0.712256455379997,"BUT","u",613.997181818182,1494.61872727273,526.399545454545,1590.30363636364,537.665090909091,1123.89609090909,568.470545454545,1238.22790909091,119.686493125065,160.362901377982,140.024697251524
"F1957","F","old",1957,3,39,-15.5,850,1350,25,-225,255,-274.949776785714,5.54126354515843,-0.555519305504557,"BUT","u",613.997181818182,1494.61872727273,526.399545454545,1590.30363636364,537.665090909091,1123.89609090909,568.470545454545,1238.22790909091,119.686493125065,160.362901377982,140.024697251524
"F1957","F","old",1957,3,40,-14.5,700,1550,-125,-25,907,377.050223214286,6.81014245011514,0.713359599452153,"BUT","u",613.997181818182,1494.61872727273,526.399545454545,1590.30363636364,537.665090909091,1123.89609090909,568.470545454545,1238.22790909091,119.686493125065,160.362901377982,140.024697251524
"F1957","F","old",1957,3,41,-13.5,850,1200,25,-375,363,-166.949776785714,5.89440283426485,-0.202380016398132,"BOUGHT","o",613.997181818182,1494.61872727273,526.399545454545,1590.30363636364,537.665090909091,1123.89609090909,568.470545454545,1238.22790909091,119.686493125065,160.362901377982,140.024697251524
"F1957","F","old",1957,3,42,-12.5,800,1850,-25,275,413,-116.949776785714,6.02344759296103,-0.0733352577019497,"BET","e",613.997181818182,1494.61872727273,526.399545454545,1590.30363636364,537.665090909091,1123.89609090909,568.470545454545,1238.22790909091,119.686493125065,160.362901377982,140.024697251524
"F1957","F","old",1957,3,43,-11.5,950,1300,125,-275,361,-168.949776785714,5.88887795833288,-0.207904892330102,"BAT","ae",613.997181818182,1494.61872727273,526.399545454545,1590.30363636364,537.665090909091,1123.89609090909,568.470545454545,1238.22790909091,119.686493125065,160.362901377982,140.024697251524
"F1957","F","old",1957,3,44,-10.5,950,1950,125,375,318,-211.949776785714,5.76205138278018,-0.334731467882806,"BAT","ae",613.997181818182,1494.61872727273,526.399545454545,1590.30363636364,537.665090909091,1123.89609090909,568.470545454545,1238.22790909091,119.686493125065,160.362901377982,140.024697251524
"F1957","F","old",1957,3,45,-9.5,750,1900,-75,325,319,-210.949776785714,5.76519110278484,-0.331591747878138,"BET","e",613.997181818182,1494.61872727273,526.399545454545,1590.30363636364,537.665090909091,1123.89609090909,568.470545454545,1238.22790909091,119.686493125065,160.362901377982,140.024697251524
"F1957","F","old",1957,3,46,-8.5,700,1750,-125,175,350,-179.949776785714,5.85793315448346,-0.238849696179524,"BUT","u",613.997181818182,1494.61872727273,526.399545454545,1590.30363636364,537.665090909091,1123.89609090909,568.470545454545,1238.22790909091,119.686493125065,160.362901377982,140.024697251524
"F1957","F","old",1957,3,47,-7.5,850,1300,25,-275,383,-146.949776785714,5.94803498918065,-0.148747861482337,"BOUGHT","o",613.997181818182,1494.61872727273,526.399545454545,1590.30363636364,537.665090909091,1123.89609090909,568.470545454545,1238.22790909091,119.686493125065,160.362901377982,140.024697251524
"F1957","F","old",1957,3,48,-6.5,950,1850,125,275,265,-264.949776785714,5.57972982598622,-0.517053024676761,"BAT","ae",613.997181818182,1494.61872727273,526.399545454545,1590.30363636364,537.665090909091,1123.89609090909,568.470545454545,1238.22790909091,119.686493125065,160.362901377982,140.024697251524
"F1957","F","old",1957,3,49,-5.5,800,1550,-25,-25,852,322.050223214286,6.74758652682932,0.650803676166333,"BUT","u",613.997181818182,1494.61872727273,526.399545454545,1590.30363636364,537.665090909091,1123.89609090909,568.470545454545,1238.22790909091,119.686493125065,160.362901377982,140.024697251524
"F1957","F","old",1957,3,50,-4.5,750,1550,-75,-25,453,-76.9497767857143,6.11589212548303,0.0191092748200514,"BUT","u",613.997181818182,1494.61872727273,526.399545454545,1590.30363636364,537.665090909091,1123.89609090909,568.470545454545,1238.22790909091,119.686493125065,160.362901377982,140.024697251524
"F1957","F","old",1957,3,51,-3.5,900,1750,75,175,383,-146.949776785714,5.94803498918065,-0.148747861482337,"BAT","ae",613.997181818182,1494.61872727273,526.399545454545,1590.30363636364,537.665090909091,1123.89609090909,568.470545454545,1238.22790909091,119.686493125065,160.362901377982,140.024697251524
"F1957","F","old",1957,3,52,-2.5,950,1900,125,325,345,-184.949776785714,5.84354441703136,-0.253238433631623,"BAT","ae",613.997181818182,1494.61872727273,526.399545454545,1590.30363636364,537.665090909091,1123.89609090909,568.470545454545,1238.22790909091,119.686493125065,160.362901377982,140.024697251524
